Created as New Dataset,Sample 046 By Analyst Date Wednesday, April 02 2025
cm-1,A
4000.00,-0.0053
3998.00,-0.0053
3996.00,-0.0053
3994.00,-0.0053
3992.00,-0.0053
3990.00,-0.0053
3988.00,-0.0053
3986.00,-0.0053
3984.00,-0.0053
3982.00,-0.0053
3980.00,-0.0053
3978.00,-0.0053
3976.00,-0.0053
3974.00,-0.0053
3972.00,-0.0053
3970.00,-0.0053
3968.00,-0.0053
3966.00,-0.0053
3964.00,-0.0053
3962.00,-0.0053
3960.00,-0.0053
3958.00,-0.0053
3956.00,-0.0053
3954.00,-0.0053
3952.00,-0.0052
3950.00,-0.0052
3948.00,-0.0052
3946.00,-0.0051
3944.00,-0.0051
3942.00,-0.0052
3940.00,-0.0052
3938.00,-0.0052
3936.00,-0.0052
3934.00,-0.0051
3932.00,-0.0051
3930.00,-0.0051
3928.00,-0.0051
3926.00,-0.0051
3924.00,-0.0052
3922.00,-0.0051
3920.00,-0.0050
3918.00,-0.0050
3916.00,-0.0051
3914.00,-0.0051
3912.00,-0.0052
3910.00,-0.0052
3908.00,-0.0052
3906.00,-0.0050
3904.00,-0.0048
3902.00,-0.0047
3900.00,-0.0047
3898.00,-0.0049
3896.00,-0.0050
3894.00,-0.0050
3892.00,-0.0051
3890.00,-0.0051
3888.00,-0.0049
3886.00,-0.0048
3884.00,-0.0050
3882.00,-0.0048
3880.00,-0.0049
3878.00,-0.0051
3876.00,-0.0049
3874.00,-0.0050
3872.00,-0.0049
3870.00,-0.0047
3868.00,-0.0049
3866.00,-0.0047
3864.00,-0.0048
3862.00,-0.0049
3860.00,-0.0049
3858.00,-0.0051
3856.00,-0.0052
3854.00,-0.0050
3852.00,-0.0049
3850.00,-0.0047
3848.00,-0.0048
3846.00,-0.0050
3844.00,-0.0050
3842.00,-0.0050
3840.00,-0.0049
3838.00,-0.0048
3836.00,-0.0049
3834.00,-0.0049
3832.00,-0.0049
3830.00,-0.0050
3828.00,-0.0050
3826.00,-0.0050
3824.00,-0.0050
3822.00,-0.0048
3820.00,-0.0050
3818.00,-0.0049
3816.00,-0.0048
3814.00,-0.0050
3812.00,-0.0050
3810.00,-0.0051
3808.00,-0.0051
3806.00,-0.0051
3804.00,-0.0050
3802.00,-0.0049
3800.00,-0.0050
3798.00,-0.0049
3796.00,-0.0049
3794.00,-0.0051
3792.00,-0.0051
3790.00,-0.0051
3788.00,-0.0051
3786.00,-0.0051
3784.00,-0.0051
3782.00,-0.0051
3780.00,-0.0050
3778.00,-0.0051
3776.00,-0.0051
3774.00,-0.0051
3772.00,-0.0051
3770.00,-0.0050
3768.00,-0.0050
3766.00,-0.0049
3764.00,-0.0050
3762.00,-0.0050
3760.00,-0.0049
3758.00,-0.0049
3756.00,-0.0049
3754.00,-0.0048
3752.00,-0.0047
3750.00,-0.0046
3748.00,-0.0046
3746.00,-0.0044
3744.00,-0.0046
3742.00,-0.0046
3740.00,-0.0044
3738.00,-0.0044
3736.00,-0.0044
3734.00,-0.0045
3732.00,-0.0045
3730.00,-0.0047
3728.00,-0.0047
3726.00,-0.0048
3724.00,-0.0049
3722.00,-0.0048
3720.00,-0.0049
3718.00,-0.0049
3716.00,-0.0050
3714.00,-0.0050
3712.00,-0.0050
3710.00,-0.0049
3708.00,-0.0049
3706.00,-0.0049
3704.00,-0.0050
3702.00,-0.0050
3700.00,-0.0051
3698.00,-0.0050
3696.00,-0.0050
3694.00,-0.0051
3692.00,-0.0050
3690.00,-0.0049
3688.00,-0.0048
3686.00,-0.0048
3684.00,-0.0049
3682.00,-0.0050
3680.00,-0.0050
3678.00,-0.0049
3676.00,-0.0047
3674.00,-0.0048
3672.00,-0.0045
3670.00,-0.0046
3668.00,-0.0048
3666.00,-0.0048
3664.00,-0.0050
3662.00,-0.0050
3660.00,-0.0050
3658.00,-0.0050
3656.00,-0.0049
3654.00,-0.0048
3652.00,-0.0046
3650.00,-0.0045
3648.00,-0.0044
3646.00,-0.0045
3644.00,-0.0047
3642.00,-0.0049
3640.00,-0.0050
3638.00,-0.0050
3636.00,-0.0050
3634.00,-0.0049
3632.00,-0.0048
3630.00,-0.0046
3628.00,-0.0047
3626.00,-0.0046
3624.00,-0.0047
3622.00,-0.0048
3620.00,-0.0047
3618.00,-0.0047
3616.00,-0.0046
3614.00,-0.0046
3612.00,-0.0047
3610.00,-0.0046
3608.00,-0.0046
3606.00,-0.0048
3604.00,-0.0048
3602.00,-0.0049
3600.00,-0.0050
3598.00,-0.0049
3596.00,-0.0049
3594.00,-0.0049
3592.00,-0.0048
3590.00,-0.0047
3588.00,-0.0047
3586.00,-0.0048
3584.00,-0.0048
3582.00,-0.0049
3580.00,-0.0051
3578.00,-0.0051
3576.00,-0.0051
3574.00,-0.0051
3572.00,-0.0050
3570.00,-0.0048
3568.00,-0.0046
3566.00,-0.0047
3564.00,-0.0048
3562.00,-0.0049
3560.00,-0.0050
3558.00,-0.0051
3556.00,-0.0051
3554.00,-0.0051
3552.00,-0.0050
3550.00,-0.0050
3548.00,-0.0049
3546.00,-0.0049
3544.00,-0.0050
3542.00,-0.0050
3540.00,-0.0051
3538.00,-0.0051
3536.00,-0.0051
3534.00,-0.0051
3532.00,-0.0051
3530.00,-0.0051
3528.00,-0.0050
3526.00,-0.0050
3524.00,-0.0050
3522.00,-0.0051
3520.00,-0.0051
3518.00,-0.0052
3516.00,-0.0052
3514.00,-0.0052
3512.00,-0.0052
3510.00,-0.0052
3508.00,-0.0052
3506.00,-0.0052
3504.00,-0.0051
3502.00,-0.0052
3500.00,-0.0052
3498.00,-0.0052
3496.00,-0.0053
3494.00,-0.0053
3492.00,-0.0053
3490.00,-0.0053
3488.00,-0.0053
3486.00,-0.0053
3484.00,-0.0053
3482.00,-0.0053
3480.00,-0.0053
3478.00,-0.0053
3476.00,-0.0053
3474.00,-0.0054
3472.00,-0.0053
3470.00,-0.0053
3468.00,-0.0053
3466.00,-0.0053
3464.00,-0.0053
3462.00,-0.0053
3460.00,-0.0053
3458.00,-0.0053
3456.00,-0.0053
3454.00,-0.0053
3452.00,-0.0053
3450.00,-0.0053
3448.00,-0.0053
3446.00,-0.0053
3444.00,-0.0053
3442.00,-0.0053
3440.00,-0.0053
3438.00,-0.0053
3436.00,-0.0053
3434.00,-0.0054
3432.00,-0.0053
3430.00,-0.0053
3428.00,-0.0053
3426.00,-0.0053
3424.00,-0.0053
3422.00,-0.0053
3420.00,-0.0053
3418.00,-0.0053
3416.00,-0.0053
3414.00,-0.0053
3412.00,-0.0053
3410.00,-0.0053
3408.00,-0.0053
3406.00,-0.0053
3404.00,-0.0053
3402.00,-0.0053
3400.00,-0.0053
3398.00,-0.0053
3396.00,-0.0053
3394.00,-0.0053
3392.00,-0.0053
3390.00,-0.0053
3388.00,-0.0053
3386.00,-0.0053
3384.00,-0.0053
3382.00,-0.0053
3380.00,-0.0053
3378.00,-0.0053
3376.00,-0.0053
3374.00,-0.0053
3372.00,-0.0053
3370.00,-0.0053
3368.00,-0.0053
3366.00,-0.0053
3364.00,-0.0053
3362.00,-0.0053
3360.00,-0.0053
3358.00,-0.0053
3356.00,-0.0053
3354.00,-0.0053
3352.00,-0.0053
3350.00,-0.0053
3348.00,-0.0053
3346.00,-0.0053
3344.00,-0.0053
3342.00,-0.0053
3340.00,-0.0053
3338.00,-0.0053
3336.00,-0.0053
3334.00,-0.0053
3332.00,-0.0053
3330.00,-0.0053
3328.00,-0.0053
3326.00,-0.0053
3324.00,-0.0053
3322.00,-0.0053
3320.00,-0.0053
3318.00,-0.0053
3316.00,-0.0053
3314.00,-0.0053
3312.00,-0.0053
3310.00,-0.0053
3308.00,-0.0052
3306.00,-0.0052
3304.00,-0.0053
3302.00,-0.0053
3300.00,-0.0053
3298.00,-0.0053
3296.00,-0.0053
3294.00,-0.0052
3292.00,-0.0052
3290.00,-0.0053
3288.00,-0.0053
3286.00,-0.0053
3284.00,-0.0053
3282.00,-0.0053
3280.00,-0.0053
3278.00,-0.0052
3276.00,-0.0052
3274.00,-0.0052
3272.00,-0.0052
3270.00,-0.0053
3268.00,-0.0053
3266.00,-0.0053
3264.00,-0.0053
3262.00,-0.0053
3260.00,-0.0053
3258.00,-0.0052
3256.00,-0.0052
3254.00,-0.0052
3252.00,-0.0052
3250.00,-0.0052
3248.00,-0.0052
3246.00,-0.0052
3244.00,-0.0052
3242.00,-0.0052
3240.00,-0.0052
3238.00,-0.0052
3236.00,-0.0052
3234.00,-0.0052
3232.00,-0.0052
3230.00,-0.0052
3228.00,-0.0052
3226.00,-0.0052
3224.00,-0.0052
3222.00,-0.0052
3220.00,-0.0052
3218.00,-0.0052
3216.00,-0.0052
3214.00,-0.0052
3212.00,-0.0052
3210.00,-0.0052
3208.00,-0.0052
3206.00,-0.0052
3204.00,-0.0052
3202.00,-0.0052
3200.00,-0.0052
3198.00,-0.0052
3196.00,-0.0052
3194.00,-0.0052
3192.00,-0.0052
3190.00,-0.0052
3188.00,-0.0052
3186.00,-0.0052
3184.00,-0.0052
3182.00,-0.0052
3180.00,-0.0052
3178.00,-0.0052
3176.00,-0.0052
3174.00,-0.0052
3172.00,-0.0052
3170.00,-0.0052
3168.00,-0.0052
3166.00,-0.0052
3164.00,-0.0052
3162.00,-0.0052
3160.00,-0.0052
3158.00,-0.0052
3156.00,-0.0051
3154.00,-0.0051
3152.00,-0.0051
3150.00,-0.0051
3148.00,-0.0051
3146.00,-0.0051
3144.00,-0.0051
3142.00,-0.0051
3140.00,-0.0051
3138.00,-0.0051
3136.00,-0.0051
3134.00,-0.0051
3132.00,-0.0051
3130.00,-0.0051
3128.00,-0.0051
3126.00,-0.0051
3124.00,-0.0051
3122.00,-0.0051
3120.00,-0.0051
3118.00,-0.0051
3116.00,-0.0051
3114.00,-0.0051
3112.00,-0.0051
3110.00,-0.0051
3108.00,-0.0051
3106.00,-0.0051
3104.00,-0.0051
3102.00,-0.0050
3100.00,-0.0050
3098.00,-0.0050
3096.00,-0.0051
3094.00,-0.0051
3092.00,-0.0050
3090.00,-0.0050
3088.00,-0.0051
3086.00,-0.0050
3084.00,-0.0050
3082.00,-0.0050
3080.00,-0.0050
3078.00,-0.0050
3076.00,-0.0050
3074.00,-0.0050
3072.00,-0.0050
3070.00,-0.0050
3068.00,-0.0050
3066.00,-0.0050
3064.00,-0.0050
3062.00,-0.0050
3060.00,-0.0050
3058.00,-0.0050
3056.00,-0.0050
3054.00,-0.0050
3052.00,-0.0050
3050.00,-0.0050
3048.00,-0.0050
3046.00,-0.0050
3044.00,-0.0050
3042.00,-0.0050
3040.00,-0.0050
3038.00,-0.0050
3036.00,-0.0050
3034.00,-0.0050
3032.00,-0.0050
3030.00,-0.0050
3028.00,-0.0050
3026.00,-0.0050
3024.00,-0.0050
3022.00,-0.0050
3020.00,-0.0050
3018.00,-0.0050
3016.00,-0.0050
3014.00,-0.0049
3012.00,-0.0049
3010.00,-0.0050
3008.00,-0.0050
3006.00,-0.0050
3004.00,-0.0050
3002.00,-0.0050
3000.00,-0.0050
2998.00,-0.0050
2996.00,-0.0050
2994.00,-0.0050
2992.00,-0.0050
2990.00,-0.0050
2988.00,-0.0050
2986.00,-0.0050
2984.00,-0.0050
2982.00,-0.0050
2980.00,-0.0050
2978.00,-0.0050
2976.00,-0.0051
2974.00,-0.0051
2972.00,-0.0051
2970.00,-0.0051
2968.00,-0.0051
2966.00,-0.0051
2964.00,-0.0051
2962.00,-0.0051
2960.00,-0.0051
2958.00,-0.0051
2956.00,-0.0050
2954.00,-0.0050
2952.00,-0.0050
2950.00,-0.0050
2948.00,-0.0050
2946.00,-0.0049
2944.00,-0.0049
2942.00,-0.0049
2940.00,-0.0049
2938.00,-0.0049
2936.00,-0.0049
2934.00,-0.0049
2932.00,-0.0049
2930.00,-0.0049
2928.00,-0.0050
2926.00,-0.0050
2924.00,-0.0051
2922.00,-0.0051
2920.00,-0.0051
2918.00,-0.0051
2916.00,-0.0050
2914.00,-0.0050
2912.00,-0.0050
2910.00,-0.0049
2908.00,-0.0049
2906.00,-0.0049
2904.00,-0.0049
2902.00,-0.0049
2900.00,-0.0049
2898.00,-0.0049
2896.00,-0.0049
2894.00,-0.0049
2892.00,-0.0049
2890.00,-0.0049
2888.00,-0.0049
2886.00,-0.0049
2884.00,-0.0049
2882.00,-0.0049
2880.00,-0.0049
2878.00,-0.0049
2876.00,-0.0049
2874.00,-0.0049
2872.00,-0.0049
2870.00,-0.0049
2868.00,-0.0049
2866.00,-0.0049
2864.00,-0.0049
2862.00,-0.0049
2860.00,-0.0049
2858.00,-0.0049
2856.00,-0.0049
2854.00,-0.0050
2852.00,-0.0050
2850.00,-0.0050
2848.00,-0.0050
2846.00,-0.0049
2844.00,-0.0049
2842.00,-0.0048
2840.00,-0.0048
2838.00,-0.0048
2836.00,-0.0048
2834.00,-0.0048
2832.00,-0.0048
2830.00,-0.0048
2828.00,-0.0048
2826.00,-0.0048
2824.00,-0.0048
2822.00,-0.0048
2820.00,-0.0048
2818.00,-0.0048
2816.00,-0.0048
2814.00,-0.0048
2812.00,-0.0048
2810.00,-0.0048
2808.00,-0.0048
2806.00,-0.0048
2804.00,-0.0048
2802.00,-0.0048
2800.00,-0.0048
2798.00,-0.0048
2796.00,-0.0048
2794.00,-0.0048
2792.00,-0.0048
2790.00,-0.0048
2788.00,-0.0048
2786.00,-0.0048
2784.00,-0.0048
2782.00,-0.0048
2780.00,-0.0048
2778.00,-0.0048
2776.00,-0.0048
2774.00,-0.0048
2772.00,-0.0048
2770.00,-0.0048
2768.00,-0.0048
2766.00,-0.0048
2764.00,-0.0048
2762.00,-0.0048
2760.00,-0.0048
2758.00,-0.0048
2756.00,-0.0048
2754.00,-0.0048
2752.00,-0.0048
2750.00,-0.0048
2748.00,-0.0048
2746.00,-0.0048
2744.00,-0.0048
2742.00,-0.0048
2740.00,-0.0048
2738.00,-0.0047
2736.00,-0.0048
2734.00,-0.0048
2732.00,-0.0048
2730.00,-0.0047
2728.00,-0.0047
2726.00,-0.0047
2724.00,-0.0047
2722.00,-0.0048
2720.00,-0.0047
2718.00,-0.0047
2716.00,-0.0048
2714.00,-0.0048
2712.00,-0.0048
2710.00,-0.0047
2708.00,-0.0047
2706.00,-0.0047
2704.00,-0.0047
2702.00,-0.0047
2700.00,-0.0047
2698.00,-0.0047
2696.00,-0.0047
2694.00,-0.0048
2692.00,-0.0047
2690.00,-0.0047
2688.00,-0.0047
2686.00,-0.0047
2684.00,-0.0047
2682.00,-0.0047
2680.00,-0.0047
2678.00,-0.0047
2676.00,-0.0047
2674.00,-0.0047
2672.00,-0.0047
2670.00,-0.0047
2668.00,-0.0047
2666.00,-0.0047
2664.00,-0.0047
2662.00,-0.0047
2660.00,-0.0047
2658.00,-0.0047
2656.00,-0.0047
2654.00,-0.0047
2652.00,-0.0047
2650.00,-0.0047
2648.00,-0.0047
2646.00,-0.0047
2644.00,-0.0047
2642.00,-0.0047
2640.00,-0.0047
2638.00,-0.0047
2636.00,-0.0047
2634.00,-0.0047
2632.00,-0.0047
2630.00,-0.0047
2628.00,-0.0047
2626.00,-0.0047
2624.00,-0.0047
2622.00,-0.0047
2620.00,-0.0047
2618.00,-0.0047
2616.00,-0.0047
2614.00,-0.0047
2612.00,-0.0047
2610.00,-0.0047
2608.00,-0.0047
2606.00,-0.0047
2604.00,-0.0047
2602.00,-0.0047
2600.00,-0.0047
2598.00,-0.0047
2596.00,-0.0047
2594.00,-0.0047
2592.00,-0.0047
2590.00,-0.0047
2588.00,-0.0047
2586.00,-0.0047
2584.00,-0.0047
2582.00,-0.0047
2580.00,-0.0047
2578.00,-0.0047
2576.00,-0.0047
2574.00,-0.0047
2572.00,-0.0047
2570.00,-0.0047
2568.00,-0.0047
2566.00,-0.0047
2564.00,-0.0047
2562.00,-0.0047
2560.00,-0.0047
2558.00,-0.0047
2556.00,-0.0047
2554.00,-0.0047
2552.00,-0.0047
2550.00,-0.0047
2548.00,-0.0047
2546.00,-0.0047
2544.00,-0.0047
2542.00,-0.0047
2540.00,-0.0047
2538.00,-0.0047
2536.00,-0.0047
2534.00,-0.0047
2532.00,-0.0047
2530.00,-0.0047
2528.00,-0.0047
2526.00,-0.0047
2524.00,-0.0047
2522.00,-0.0047
2520.00,-0.0047
2518.00,-0.0047
2516.00,-0.0047
2514.00,-0.0047
2512.00,-0.0047
2510.00,-0.0047
2508.00,-0.0047
2506.00,-0.0047
2504.00,-0.0047
2502.00,-0.0047
2500.00,-0.0047
2498.00,-0.0047
2496.00,-0.0047
2494.00,-0.0047
2492.00,-0.0047
2490.00,-0.0047
2488.00,-0.0047
2486.00,-0.0047
2484.00,-0.0047
2482.00,-0.0047
2480.00,-0.0047
2478.00,-0.0047
2476.00,-0.0047
2474.00,-0.0047
2472.00,-0.0047
2470.00,-0.0047
2468.00,-0.0047
2466.00,-0.0047
2464.00,-0.0047
2462.00,-0.0047
2460.00,-0.0047
2458.00,-0.0047
2456.00,-0.0047
2454.00,-0.0047
2452.00,-0.0047
2450.00,-0.0047
2448.00,-0.0047
2446.00,-0.0047
2444.00,-0.0047
2442.00,-0.0047
2440.00,-0.0047
2438.00,-0.0047
2436.00,-0.0047
2434.00,-0.0047
2432.00,-0.0047
2430.00,-0.0047
2428.00,-0.0047
2426.00,-0.0047
2424.00,-0.0047
2422.00,-0.0047
2420.00,-0.0047
2418.00,-0.0047
2416.00,-0.0047
2414.00,-0.0047
2412.00,-0.0047
2410.00,-0.0047
2408.00,-0.0047
2406.00,-0.0047
2404.00,-0.0047
2402.00,-0.0047
2400.00,-0.0047
2398.00,-0.0047
2396.00,-0.0047
2394.00,-0.0047
2392.00,-0.0047
2390.00,-0.0047
2388.00,-0.0047
2386.00,-0.0047
2384.00,-0.0048
2382.00,-0.0048
2380.00,-0.0048
2378.00,-0.0047
2376.00,-0.0046
2374.00,-0.0047
2372.00,-0.0048
2370.00,-0.0047
2368.00,-0.0046
2366.00,-0.0046
2364.00,-0.0047
2362.00,-0.0048
2360.00,-0.0050
2358.00,-0.0050
2356.00,-0.0049
2354.00,-0.0047
2352.00,-0.0044
2350.00,-0.0046
2348.00,-0.0050
2346.00,-0.0048
2344.00,-0.0048
2342.00,-0.0050
2340.00,-0.0050
2338.00,-0.0050
2336.00,-0.0049
2334.00,-0.0049
2332.00,-0.0048
2330.00,-0.0048
2328.00,-0.0049
2326.00,-0.0050
2324.00,-0.0050
2322.00,-0.0049
2320.00,-0.0050
2318.00,-0.0051
2316.00,-0.0051
2314.00,-0.0050
2312.00,-0.0049
2310.00,-0.0049
2308.00,-0.0049
2306.00,-0.0049
2304.00,-0.0049
2302.00,-0.0049
2300.00,-0.0048
2298.00,-0.0048
2296.00,-0.0048
2294.00,-0.0048
2292.00,-0.0048
2290.00,-0.0048
2288.00,-0.0047
2286.00,-0.0047
2284.00,-0.0047
2282.00,-0.0047
2280.00,-0.0047
2278.00,-0.0047
2276.00,-0.0047
2274.00,-0.0047
2272.00,-0.0047
2270.00,-0.0047
2268.00,-0.0047
2266.00,-0.0047
2264.00,-0.0047
2262.00,-0.0047
2260.00,-0.0047
2258.00,-0.0047
2256.00,-0.0047
2254.00,-0.0047
2252.00,-0.0047
2250.00,-0.0047
2248.00,-0.0047
2246.00,-0.0047
2244.00,-0.0047
2242.00,-0.0047
2240.00,-0.0047
2238.00,-0.0047
2236.00,-0.0047
2234.00,-0.0047
2232.00,-0.0047
2230.00,-0.0047
2228.00,-0.0047
2226.00,-0.0047
2224.00,-0.0047
2222.00,-0.0047
2220.00,-0.0047
2218.00,-0.0047
2216.00,-0.0047
2214.00,-0.0047
2212.00,-0.0047
2210.00,-0.0047
2208.00,-0.0047
2206.00,-0.0046
2204.00,-0.0046
2202.00,-0.0046
2200.00,-0.0046
2198.00,-0.0047
2196.00,-0.0047
2194.00,-0.0047
2192.00,-0.0047
2190.00,-0.0047
2188.00,-0.0047
2186.00,-0.0047
2184.00,-0.0047
2182.00,-0.0047
2180.00,-0.0047
2178.00,-0.0047
2176.00,-0.0047
2174.00,-0.0047
2172.00,-0.0047
2170.00,-0.0047
2168.00,-0.0047
2166.00,-0.0047
2164.00,-0.0047
2162.00,-0.0047
2160.00,-0.0047
2158.00,-0.0047
2156.00,-0.0047
2154.00,-0.0047
2152.00,-0.0047
2150.00,-0.0047
2148.00,-0.0046
2146.00,-0.0047
2144.00,-0.0047
2142.00,-0.0047
2140.00,-0.0047
2138.00,-0.0046
2136.00,-0.0046
2134.00,-0.0046
2132.00,-0.0046
2130.00,-0.0046
2128.00,-0.0047
2126.00,-0.0047
2124.00,-0.0047
2122.00,-0.0047
2120.00,-0.0047
2118.00,-0.0047
2116.00,-0.0047
2114.00,-0.0047
2112.00,-0.0047
2110.00,-0.0047
2108.00,-0.0047
2106.00,-0.0047
2104.00,-0.0047
2102.00,-0.0047
2100.00,-0.0047
2098.00,-0.0047
2096.00,-0.0046
2094.00,-0.0047
2092.00,-0.0047
2090.00,-0.0047
2088.00,-0.0047
2086.00,-0.0046
2084.00,-0.0046
2082.00,-0.0046
2080.00,-0.0046
2078.00,-0.0046
2076.00,-0.0047
2074.00,-0.0047
2072.00,-0.0047
2070.00,-0.0046
2068.00,-0.0046
2066.00,-0.0046
2064.00,-0.0047
2062.00,-0.0047
2060.00,-0.0046
2058.00,-0.0046
2056.00,-0.0046
2054.00,-0.0046
2052.00,-0.0046
2050.00,-0.0046
2048.00,-0.0046
2046.00,-0.0046
2044.00,-0.0046
2042.00,-0.0046
2040.00,-0.0046
2038.00,-0.0046
2036.00,-0.0046
2034.00,-0.0046
2032.00,-0.0046
2030.00,-0.0046
2028.00,-0.0046
2026.00,-0.0046
2024.00,-0.0046
2022.00,-0.0046
2020.00,-0.0046
2018.00,-0.0046
2016.00,-0.0046
2014.00,-0.0046
2012.00,-0.0046
2010.00,-0.0046
2008.00,-0.0046
2006.00,-0.0046
2004.00,-0.0046
2002.00,-0.0046
2000.00,-0.0046
1998.00,-0.0046
1996.00,-0.0046
1994.00,-0.0046
1992.00,-0.0047
1990.00,-0.0046
1988.00,-0.0046
1986.00,-0.0046
1984.00,-0.0046
1982.00,-0.0046
1980.00,-0.0046
1978.00,-0.0046
1976.00,-0.0046
1974.00,-0.0046
1972.00,-0.0046
1970.00,-0.0046
1968.00,-0.0046
1966.00,-0.0046
1964.00,-0.0046
1962.00,-0.0046
1960.00,-0.0046
1958.00,-0.0046
1956.00,-0.0046
1954.00,-0.0046
1952.00,-0.0046
1950.00,-0.0046
1948.00,-0.0046
1946.00,-0.0046
1944.00,-0.0046
1942.00,-0.0046
1940.00,-0.0046
1938.00,-0.0046
1936.00,-0.0046
1934.00,-0.0046
1932.00,-0.0046
1930.00,-0.0046
1928.00,-0.0046
1926.00,-0.0046
1924.00,-0.0046
1922.00,-0.0046
1920.00,-0.0046
1918.00,-0.0046
1916.00,-0.0046
1914.00,-0.0046
1912.00,-0.0046
1910.00,-0.0046
1908.00,-0.0046
1906.00,-0.0046
1904.00,-0.0046
1902.00,-0.0046
1900.00,-0.0046
1898.00,-0.0046
1896.00,-0.0046
1894.00,-0.0046
1892.00,-0.0046
1890.00,-0.0046
1888.00,-0.0046
1886.00,-0.0046
1884.00,-0.0046
1882.00,-0.0046
1880.00,-0.0046
1878.00,-0.0046
1876.00,-0.0046
1874.00,-0.0046
1872.00,-0.0046
1870.00,-0.0046
1868.00,-0.0046
1866.00,-0.0046
1864.00,-0.0046
1862.00,-0.0046
1860.00,-0.0046
1858.00,-0.0046
1856.00,-0.0046
1854.00,-0.0046
1852.00,-0.0046
1850.00,-0.0046
1848.00,-0.0046
1846.00,-0.0046
1844.00,-0.0046
1842.00,-0.0046
1840.00,-0.0046
1838.00,-0.0046
1836.00,-0.0046
1834.00,-0.0046
1832.00,-0.0046
1830.00,-0.0046
1828.00,-0.0046
1826.00,-0.0046
1824.00,-0.0046
1822.00,-0.0046
1820.00,-0.0046
1818.00,-0.0046
1816.00,-0.0046
1814.00,-0.0046
1812.00,-0.0046
1810.00,-0.0046
1808.00,-0.0046
1806.00,-0.0046
1804.00,-0.0046
1802.00,-0.0046
1800.00,-0.0045
1798.00,-0.0046
1796.00,-0.0051
1794.00,-0.0067
1792.00,-0.0070
1790.00,-0.0053
1788.00,-0.0046
1786.00,-0.0045
1784.00,-0.0045
1782.00,-0.0046
1780.00,-0.0046
1778.00,-0.0046
1776.00,-0.0046
1774.00,-0.0046
1772.00,-0.0046
1770.00,-0.0045
1768.00,-0.0045
1766.00,-0.0045
1764.00,-0.0045
1762.00,-0.0046
1760.00,-0.0046
1758.00,-0.0046
1756.00,-0.0046
1754.00,-0.0045
1752.00,-0.0043
1750.00,-0.0044
1748.00,-0.0045
1746.00,-0.0046
1744.00,-0.0046
1742.00,-0.0046
1740.00,-0.0046
1738.00,-0.0046
1736.00,-0.0045
1734.00,-0.0044
1732.00,-0.0044
1730.00,-0.0045
1728.00,-0.0046
1726.00,-0.0046
1724.00,-0.0046
1722.00,-0.0046
1720.00,-0.0046
1718.00,-0.0045
1716.00,-0.0045
1714.00,-0.0045
1712.00,-0.0045
1710.00,-0.0046
1708.00,-0.0046
1706.00,-0.0046
1704.00,-0.0047
1702.00,-0.0046
1700.00,-0.0046
1698.00,-0.0045
1696.00,-0.0045
1694.00,-0.0045
1692.00,-0.0045
1690.00,-0.0046
1688.00,-0.0046
1686.00,-0.0046
1684.00,-0.0046
1682.00,-0.0046
1680.00,-0.0046
1678.00,-0.0046
1676.00,-0.0046
1674.00,-0.0046
1672.00,-0.0045
1670.00,-0.0046
1668.00,-0.0046
1666.00,-0.0046
1664.00,-0.0047
1662.00,-0.0047
1660.00,-0.0046
1658.00,-0.0046
1656.00,-0.0047
1654.00,-0.0048
1652.00,-0.0048
1650.00,-0.0046
1648.00,-0.0046
1646.00,-0.0046
1644.00,-0.0046
1642.00,-0.0046
1640.00,-0.0046
1638.00,-0.0046
1636.00,-0.0046
1634.00,-0.0046
1632.00,-0.0046
1630.00,-0.0046
1628.00,-0.0047
1626.00,-0.0047
1624.00,-0.0047
1622.00,-0.0047
1620.00,-0.0047
1618.00,-0.0047
1616.00,-0.0047
1614.00,-0.0047
1612.00,-0.0047
1610.00,-0.0047
1608.00,-0.0047
1606.00,-0.0046
1604.00,-0.0046
1602.00,-0.0046
1600.00,-0.0046
1598.00,-0.0046
1596.00,-0.0047
1594.00,-0.0047
1592.00,-0.0047
1590.00,-0.0047
1588.00,-0.0046
1586.00,-0.0046
1584.00,-0.0046
1582.00,-0.0046
1580.00,-0.0047
1578.00,-0.0047
1576.00,-0.0047
1574.00,-0.0046
1572.00,-0.0047
1570.00,-0.0047
1568.00,-0.0047
1566.00,-0.0046
1564.00,-0.0046
1562.00,-0.0047
1560.00,-0.0047
1558.00,-0.0046
1556.00,-0.0045
1554.00,-0.0045
1552.00,-0.0045
1550.00,-0.0045
1548.00,-0.0045
1546.00,-0.0045
1544.00,-0.0046
1542.00,-0.0045
1540.00,-0.0045
1538.00,-0.0046
1536.00,-0.0045
1534.00,-0.0045
1532.00,-0.0046
1530.00,-0.0045
1528.00,-0.0045
1526.00,-0.0045
1524.00,-0.0045
1522.00,-0.0045
1520.00,-0.0045
1518.00,-0.0045
1516.00,-0.0045
1514.00,-0.0045
1512.00,-0.0045
1510.00,-0.0046
1508.00,-0.0046
1506.00,-0.0044
1504.00,-0.0045
1502.00,-0.0046
1500.00,-0.0047
1498.00,-0.0047
1496.00,-0.0046
1494.00,-0.0045
1492.00,-0.0045
1490.00,-0.0045
1488.00,-0.0045
1486.00,-0.0045
1484.00,-0.0046
1482.00,-0.0046
1480.00,-0.0046
1478.00,-0.0046
1476.00,-0.0045
1474.00,-0.0044
1472.00,-0.0045
1470.00,-0.0046
1468.00,-0.0046
1466.00,-0.0047
1464.00,-0.0046
1462.00,-0.0046
1460.00,-0.0046
1458.00,-0.0045
1456.00,-0.0044
1454.00,-0.0045
1452.00,-0.0046
1450.00,-0.0046
1448.00,-0.0046
1446.00,-0.0046
1444.00,-0.0046
1442.00,-0.0046
1440.00,-0.0046
1438.00,-0.0045
1436.00,-0.0045
1434.00,-0.0045
1432.00,-0.0046
1430.00,-0.0046
1428.00,-0.0046
1426.00,-0.0046
1424.00,-0.0045
1422.00,-0.0046
1420.00,-0.0046
1418.00,-0.0046
1416.00,-0.0046
1414.00,-0.0046
1412.00,-0.0046
1410.00,-0.0047
1408.00,-0.0047
1406.00,-0.0047
1404.00,-0.0047
1402.00,-0.0046
1400.00,-0.0046
1398.00,-0.0046
1396.00,-0.0046
1394.00,-0.0046
1392.00,-0.0046
1390.00,-0.0046
1388.00,-0.0046
1386.00,-0.0047
1384.00,-0.0047
1382.00,-0.0047
1380.00,-0.0046
1378.00,-0.0046
1376.00,-0.0046
1374.00,-0.0046
1372.00,-0.0046
1370.00,-0.0046
1368.00,-0.0046
1366.00,-0.0047
1364.00,-0.0047
1362.00,-0.0047
1360.00,-0.0047
1358.00,-0.0046
1356.00,-0.0047
1354.00,-0.0047
1352.00,-0.0047
1350.00,-0.0047
1348.00,-0.0047
1346.00,-0.0047
1344.00,-0.0047
1342.00,-0.0047
1340.00,-0.0048
1338.00,-0.0047
1336.00,-0.0047
1334.00,-0.0047
1332.00,-0.0047
1330.00,-0.0047
1328.00,-0.0047
1326.00,-0.0047
1324.00,-0.0047
1322.00,-0.0047
1320.00,-0.0047
1318.00,-0.0047
1316.00,-0.0047
1314.00,-0.0047
1312.00,-0.0047
1310.00,-0.0047
1308.00,-0.0047
1306.00,-0.0047
1304.00,-0.0047
1302.00,-0.0047
1300.00,-0.0047
1298.00,-0.0047
1296.00,-0.0047
1294.00,-0.0047
1292.00,-0.0047
1290.00,-0.0047
1288.00,-0.0047
1286.00,-0.0047
1284.00,-0.0047
1282.00,-0.0047
1280.00,-0.0047
1278.00,-0.0047
1276.00,-0.0047
1274.00,-0.0047
1272.00,-0.0047
1270.00,-0.0047
1268.00,-0.0047
1266.00,-0.0048
1264.00,-0.0048
1262.00,-0.0048
1260.00,-0.0049
1258.00,-0.0049
1256.00,-0.0049
1254.00,-0.0050
1252.00,-0.0050
1250.00,-0.0050
1248.00,-0.0050
1246.00,-0.0050
1244.00,-0.0050
1242.00,-0.0049
1240.00,-0.0049
1238.00,-0.0048
1236.00,-0.0048
1234.00,-0.0048
1232.00,-0.0047
1230.00,-0.0047
1228.00,-0.0047
1226.00,-0.0047
1224.00,-0.0047
1222.00,-0.0047
1220.00,-0.0048
1218.00,-0.0048
1216.00,-0.0048
1214.00,-0.0048
1212.00,-0.0048
1210.00,-0.0048
1208.00,-0.0048
1206.00,-0.0048
1204.00,-0.0048
1202.00,-0.0048
1200.00,-0.0048
1198.00,-0.0048
1196.00,-0.0048
1194.00,-0.0048
1192.00,-0.0048
1190.00,-0.0048
1188.00,-0.0048
1186.00,-0.0048
1184.00,-0.0049
1182.00,-0.0049
1180.00,-0.0048
1178.00,-0.0048
1176.00,-0.0048
1174.00,-0.0048
1172.00,-0.0048
1170.00,-0.0048
1168.00,-0.0048
1166.00,-0.0049
1164.00,-0.0049
1162.00,-0.0049
1160.00,-0.0049
1158.00,-0.0049
1156.00,-0.0049
1154.00,-0.0049
1152.00,-0.0049
1150.00,-0.0049
1148.00,-0.0049
1146.00,-0.0049
1144.00,-0.0049
1142.00,-0.0049
1140.00,-0.0049
1138.00,-0.0049
1136.00,-0.0049
1134.00,-0.0049
1132.00,-0.0049
1130.00,-0.0049
1128.00,-0.0049
1126.00,-0.0049
1124.00,-0.0050
1122.00,-0.0050
1120.00,-0.0050
1118.00,-0.0050
1116.00,-0.0050
1114.00,-0.0050
1112.00,-0.0050
1110.00,-0.0050
1108.00,-0.0049
1106.00,-0.0049
1104.00,-0.0050
1102.00,-0.0050
1100.00,-0.0049
1098.00,-0.0049
1096.00,-0.0049
1094.00,-0.0049
1092.00,-0.0049
1090.00,-0.0050
1088.00,-0.0050
1086.00,-0.0050
1084.00,-0.0050
1082.00,-0.0050
1080.00,-0.0050
1078.00,-0.0050
1076.00,-0.0050
1074.00,-0.0050
1072.00,-0.0049
1070.00,-0.0050
1068.00,-0.0050
1066.00,-0.0049
1064.00,-0.0049
1062.00,-0.0049
1060.00,-0.0049
1058.00,-0.0049
1056.00,-0.0049
1054.00,-0.0050
1052.00,-0.0049
1050.00,-0.0049
1048.00,-0.0048
1046.00,-0.0048
1044.00,-0.0048
1042.00,-0.0048
1040.00,-0.0048
1038.00,-0.0048
1036.00,-0.0048
1034.00,-0.0049
1032.00,-0.0048
1030.00,-0.0048
1028.00,-0.0047
1026.00,-0.0047
1024.00,-0.0047
1022.00,-0.0047
1020.00,-0.0047
1018.00,-0.0047
1016.00,-0.0047
1014.00,-0.0047
1012.00,-0.0047
1010.00,-0.0046
1008.00,-0.0046
1006.00,-0.0047
1004.00,-0.0047
1002.00,-0.0047
1000.00,-0.0047
998.00,-0.0047
996.00,-0.0047
994.00,-0.0047
992.00,-0.0046
990.00,-0.0047
988.00,-0.0047
986.00,-0.0047
984.00,-0.0047
982.00,-0.0047
980.00,-0.0047
978.00,-0.0047
976.00,-0.0047
974.00,-0.0047
972.00,-0.0047
970.00,-0.0048
968.00,-0.0048
966.00,-0.0048
964.00,-0.0048
962.00,-0.0048
960.00,-0.0048
958.00,-0.0048
956.00,-0.0048
954.00,-0.0049
952.00,-0.0049
950.00,-0.0049
948.00,-0.0049
946.00,-0.0049
944.00,-0.0049
942.00,-0.0050
940.00,-0.0050
938.00,-0.0049
936.00,-0.0050
934.00,-0.0050
932.00,-0.0050
930.00,-0.0050
928.00,-0.0050
926.00,-0.0050
924.00,-0.0050
922.00,-0.0050
920.00,-0.0050
918.00,-0.0050
916.00,-0.0050
914.00,-0.0050
912.00,-0.0051
910.00,-0.0051
908.00,-0.0050
906.00,-0.0050
904.00,-0.0050
902.00,-0.0050
900.00,-0.0050
898.00,-0.0050
896.00,-0.0050
894.00,-0.0049
892.00,-0.0049
890.00,-0.0050
888.00,-0.0050
886.00,-0.0050
884.00,-0.0050
882.00,-0.0050
880.00,-0.0050
878.00,-0.0050
876.00,-0.0049
874.00,-0.0049
872.00,-0.0049
870.00,-0.0049
868.00,-0.0049
866.00,-0.0049
864.00,-0.0049
862.00,-0.0049
860.00,-0.0049
858.00,-0.0049
856.00,-0.0049
854.00,-0.0049
852.00,-0.0049
850.00,-0.0049
848.00,-0.0049
846.00,-0.0049
844.00,-0.0049
842.00,-0.0049
840.00,-0.0049
838.00,-0.0049
836.00,-0.0049
834.00,-0.0049
832.00,-0.0049
830.00,-0.0050
828.00,-0.0049
826.00,-0.0049
824.00,-0.0049
822.00,-0.0049
820.00,-0.0049
818.00,-0.0049
816.00,-0.0049
814.00,-0.0049
812.00,-0.0049
810.00,-0.0049
808.00,-0.0049
806.00,-0.0049
804.00,-0.0049
802.00,-0.0049
800.00,-0.0049
798.00,-0.0049
796.00,-0.0049
794.00,-0.0049
792.00,-0.0049
790.00,-0.0049
788.00,-0.0049
786.00,-0.0048
784.00,-0.0048
782.00,-0.0048
780.00,-0.0048
778.00,-0.0048
776.00,-0.0048
774.00,-0.0048
772.00,-0.0048
770.00,-0.0048
768.00,-0.0048
766.00,-0.0048
764.00,-0.0049
762.00,-0.0049
760.00,-0.0048
758.00,-0.0048
756.00,-0.0048
754.00,-0.0048
752.00,-0.0048
750.00,-0.0048
748.00,-0.0048
746.00,-0.0048
744.00,-0.0048
742.00,-0.0048
740.00,-0.0048
738.00,-0.0048
736.00,-0.0048
734.00,-0.0048
732.00,-0.0048
730.00,-0.0048
728.00,-0.0049
726.00,-0.0049
724.00,-0.0048
722.00,-0.0049
720.00,-0.0049
718.00,-0.0049
716.00,-0.0049
714.00,-0.0049
712.00,-0.0048
710.00,-0.0049
708.00,-0.0049
706.00,-0.0049
704.00,-0.0049
702.00,-0.0049
700.00,-0.0049
698.00,-0.0049
696.00,-0.0049
694.00,-0.0049
692.00,-0.0049
690.00,-0.0049
688.00,-0.0049
686.00,-0.0048
684.00,-0.0048
682.00,-0.0049
680.00,-0.0049
678.00,-0.0049
676.00,-0.0049
674.00,-0.0049
672.00,-0.0046
670.00,-0.0031
668.00,-0.0006
666.00,-0.0025
664.00,-0.0045
662.00,-0.0050
660.00,-0.0049
658.00,-0.0049
656.00,-0.0049
654.00,-0.0049
652.00,-0.0049
650.00,-0.0049
648.00,-0.0049
646.00,-0.0049
644.00,-0.0050
642.00,-0.0050
640.00,-0.0050
638.00,-0.0050
636.00,-0.0050
634.00,-0.0050
632.00,-0.0050
630.00,-0.0051
628.00,-0.0051
626.00,-0.0051
624.00,-0.0051
622.00,-0.0050
620.00,-0.0051
618.00,-0.0051
616.00,-0.0051
614.00,-0.0052
612.00,-0.0052
610.00,-0.0052
608.00,-0.0053
606.00,-0.0053
604.00,-0.0052
602.00,-0.0051
600.00,-0.0051
598.00,-0.0050
596.00,-0.0051
594.00,-0.0050
592.00,-0.0051
590.00,-0.0051
588.00,-0.0052
586.00,-0.0052
584.00,-0.0052
582.00,-0.0052
580.00,-0.0052
578.00,-0.0052
576.00,-0.0052
574.00,-0.0052
572.00,-0.0052
570.00,-0.0052
568.00,-0.0052
566.00,-0.0052
564.00,-0.0052
562.00,-0.0051
560.00,-0.0050
558.00,-0.0050
556.00,-0.0051
554.00,-0.0052
552.00,-0.0052
550.00,-0.0051
548.00,-0.0051
546.00,-0.0051
544.00,-0.0051
542.00,-0.0050
540.00,-0.0050
538.00,-0.0050
536.00,-0.0051
534.00,-0.0051
532.00,-0.0050
530.00,-0.0050
528.00,-0.0050
526.00,-0.0051
524.00,-0.0051
522.00,-0.0051
520.00,-0.0051
518.00,-0.0052
516.00,-0.0052
514.00,-0.0052
512.00,-0.0052
510.00,-0.0052
508.00,-0.0052
506.00,-0.0052
504.00,-0.0053
502.00,-0.0053
500.00,-0.0054
