Created as New Dataset,Sample 040 By Analyst Date Wednesday, April 02 2025
cm-1,A
4000.00,-0.0044
3998.00,-0.0044
3996.00,-0.0044
3994.00,-0.0044
3992.00,-0.0044
3990.00,-0.0044
3988.00,-0.0044
3986.00,-0.0044
3984.00,-0.0044
3982.00,-0.0044
3980.00,-0.0044
3978.00,-0.0044
3976.00,-0.0044
3974.00,-0.0044
3972.00,-0.0044
3970.00,-0.0044
3968.00,-0.0044
3966.00,-0.0044
3964.00,-0.0044
3962.00,-0.0044
3960.00,-0.0044
3958.00,-0.0044
3956.00,-0.0044
3954.00,-0.0044
3952.00,-0.0044
3950.00,-0.0044
3948.00,-0.0044
3946.00,-0.0043
3944.00,-0.0043
3942.00,-0.0044
3940.00,-0.0043
3938.00,-0.0043
3936.00,-0.0043
3934.00,-0.0043
3932.00,-0.0043
3930.00,-0.0043
3928.00,-0.0043
3926.00,-0.0043
3924.00,-0.0044
3922.00,-0.0043
3920.00,-0.0043
3918.00,-0.0043
3916.00,-0.0043
3914.00,-0.0043
3912.00,-0.0043
3910.00,-0.0044
3908.00,-0.0043
3906.00,-0.0043
3904.00,-0.0043
3902.00,-0.0043
3900.00,-0.0043
3898.00,-0.0043
3896.00,-0.0043
3894.00,-0.0043
3892.00,-0.0043
3890.00,-0.0044
3888.00,-0.0043
3886.00,-0.0043
3884.00,-0.0043
3882.00,-0.0043
3880.00,-0.0043
3878.00,-0.0044
3876.00,-0.0043
3874.00,-0.0043
3872.00,-0.0043
3870.00,-0.0043
3868.00,-0.0044
3866.00,-0.0043
3864.00,-0.0043
3862.00,-0.0043
3860.00,-0.0043
3858.00,-0.0044
3856.00,-0.0043
3854.00,-0.0043
3852.00,-0.0043
3850.00,-0.0043
3848.00,-0.0043
3846.00,-0.0044
3844.00,-0.0044
3842.00,-0.0044
3840.00,-0.0043
3838.00,-0.0043
3836.00,-0.0044
3834.00,-0.0044
3832.00,-0.0044
3830.00,-0.0044
3828.00,-0.0043
3826.00,-0.0043
3824.00,-0.0044
3822.00,-0.0044
3820.00,-0.0044
3818.00,-0.0044
3816.00,-0.0043
3814.00,-0.0043
3812.00,-0.0043
3810.00,-0.0044
3808.00,-0.0044
3806.00,-0.0044
3804.00,-0.0044
3802.00,-0.0043
3800.00,-0.0044
3798.00,-0.0043
3796.00,-0.0043
3794.00,-0.0043
3792.00,-0.0043
3790.00,-0.0043
3788.00,-0.0043
3786.00,-0.0043
3784.00,-0.0043
3782.00,-0.0043
3780.00,-0.0043
3778.00,-0.0043
3776.00,-0.0043
3774.00,-0.0043
3772.00,-0.0043
3770.00,-0.0043
3768.00,-0.0043
3766.00,-0.0043
3764.00,-0.0043
3762.00,-0.0043
3760.00,-0.0043
3758.00,-0.0043
3756.00,-0.0043
3754.00,-0.0043
3752.00,-0.0043
3750.00,-0.0043
3748.00,-0.0043
3746.00,-0.0043
3744.00,-0.0043
3742.00,-0.0043
3740.00,-0.0043
3738.00,-0.0043
3736.00,-0.0043
3734.00,-0.0042
3732.00,-0.0042
3730.00,-0.0043
3728.00,-0.0043
3726.00,-0.0043
3724.00,-0.0043
3722.00,-0.0043
3720.00,-0.0043
3718.00,-0.0043
3716.00,-0.0043
3714.00,-0.0044
3712.00,-0.0044
3710.00,-0.0044
3708.00,-0.0043
3706.00,-0.0043
3704.00,-0.0043
3702.00,-0.0042
3700.00,-0.0042
3698.00,-0.0042
3696.00,-0.0043
3694.00,-0.0043
3692.00,-0.0043
3690.00,-0.0042
3688.00,-0.0042
3686.00,-0.0042
3684.00,-0.0042
3682.00,-0.0042
3680.00,-0.0043
3678.00,-0.0043
3676.00,-0.0043
3674.00,-0.0043
3672.00,-0.0042
3670.00,-0.0042
3668.00,-0.0042
3666.00,-0.0042
3664.00,-0.0042
3662.00,-0.0042
3660.00,-0.0042
3658.00,-0.0042
3656.00,-0.0042
3654.00,-0.0042
3652.00,-0.0042
3650.00,-0.0042
3648.00,-0.0042
3646.00,-0.0042
3644.00,-0.0042
3642.00,-0.0042
3640.00,-0.0042
3638.00,-0.0042
3636.00,-0.0042
3634.00,-0.0042
3632.00,-0.0042
3630.00,-0.0042
3628.00,-0.0042
3626.00,-0.0042
3624.00,-0.0042
3622.00,-0.0042
3620.00,-0.0041
3618.00,-0.0042
3616.00,-0.0042
3614.00,-0.0042
3612.00,-0.0042
3610.00,-0.0042
3608.00,-0.0042
3606.00,-0.0042
3604.00,-0.0042
3602.00,-0.0042
3600.00,-0.0042
3598.00,-0.0042
3596.00,-0.0042
3594.00,-0.0042
3592.00,-0.0042
3590.00,-0.0042
3588.00,-0.0042
3586.00,-0.0042
3584.00,-0.0042
3582.00,-0.0042
3580.00,-0.0042
3578.00,-0.0042
3576.00,-0.0042
3574.00,-0.0042
3572.00,-0.0042
3570.00,-0.0042
3568.00,-0.0042
3566.00,-0.0042
3564.00,-0.0042
3562.00,-0.0042
3560.00,-0.0043
3558.00,-0.0043
3556.00,-0.0043
3554.00,-0.0042
3552.00,-0.0042
3550.00,-0.0042
3548.00,-0.0042
3546.00,-0.0042
3544.00,-0.0042
3542.00,-0.0042
3540.00,-0.0043
3538.00,-0.0043
3536.00,-0.0043
3534.00,-0.0043
3532.00,-0.0043
3530.00,-0.0043
3528.00,-0.0043
3526.00,-0.0043
3524.00,-0.0043
3522.00,-0.0043
3520.00,-0.0043
3518.00,-0.0043
3516.00,-0.0043
3514.00,-0.0043
3512.00,-0.0043
3510.00,-0.0043
3508.00,-0.0043
3506.00,-0.0043
3504.00,-0.0043
3502.00,-0.0044
3500.00,-0.0044
3498.00,-0.0044
3496.00,-0.0044
3494.00,-0.0044
3492.00,-0.0044
3490.00,-0.0044
3488.00,-0.0044
3486.00,-0.0044
3484.00,-0.0044
3482.00,-0.0044
3480.00,-0.0044
3478.00,-0.0044
3476.00,-0.0044
3474.00,-0.0044
3472.00,-0.0044
3470.00,-0.0044
3468.00,-0.0044
3466.00,-0.0044
3464.00,-0.0044
3462.00,-0.0044
3460.00,-0.0044
3458.00,-0.0044
3456.00,-0.0044
3454.00,-0.0044
3452.00,-0.0044
3450.00,-0.0044
3448.00,-0.0044
3446.00,-0.0044
3444.00,-0.0044
3442.00,-0.0044
3440.00,-0.0044
3438.00,-0.0044
3436.00,-0.0044
3434.00,-0.0044
3432.00,-0.0044
3430.00,-0.0044
3428.00,-0.0044
3426.00,-0.0044
3424.00,-0.0044
3422.00,-0.0044
3420.00,-0.0044
3418.00,-0.0044
3416.00,-0.0044
3414.00,-0.0044
3412.00,-0.0044
3410.00,-0.0044
3408.00,-0.0044
3406.00,-0.0044
3404.00,-0.0044
3402.00,-0.0044
3400.00,-0.0044
3398.00,-0.0044
3396.00,-0.0044
3394.00,-0.0044
3392.00,-0.0044
3390.00,-0.0044
3388.00,-0.0044
3386.00,-0.0044
3384.00,-0.0044
3382.00,-0.0044
3380.00,-0.0044
3378.00,-0.0044
3376.00,-0.0044
3374.00,-0.0044
3372.00,-0.0044
3370.00,-0.0044
3368.00,-0.0044
3366.00,-0.0044
3364.00,-0.0044
3362.00,-0.0044
3360.00,-0.0044
3358.00,-0.0044
3356.00,-0.0044
3354.00,-0.0044
3352.00,-0.0044
3350.00,-0.0044
3348.00,-0.0044
3346.00,-0.0044
3344.00,-0.0044
3342.00,-0.0044
3340.00,-0.0043
3338.00,-0.0043
3336.00,-0.0043
3334.00,-0.0043
3332.00,-0.0043
3330.00,-0.0043
3328.00,-0.0043
3326.00,-0.0043
3324.00,-0.0043
3322.00,-0.0043
3320.00,-0.0043
3318.00,-0.0043
3316.00,-0.0043
3314.00,-0.0043
3312.00,-0.0043
3310.00,-0.0043
3308.00,-0.0043
3306.00,-0.0043
3304.00,-0.0043
3302.00,-0.0043
3300.00,-0.0043
3298.00,-0.0043
3296.00,-0.0043
3294.00,-0.0043
3292.00,-0.0043
3290.00,-0.0043
3288.00,-0.0043
3286.00,-0.0043
3284.00,-0.0043
3282.00,-0.0043
3280.00,-0.0043
3278.00,-0.0043
3276.00,-0.0043
3274.00,-0.0043
3272.00,-0.0043
3270.00,-0.0043
3268.00,-0.0043
3266.00,-0.0043
3264.00,-0.0043
3262.00,-0.0043
3260.00,-0.0043
3258.00,-0.0043
3256.00,-0.0043
3254.00,-0.0043
3252.00,-0.0043
3250.00,-0.0043
3248.00,-0.0043
3246.00,-0.0043
3244.00,-0.0043
3242.00,-0.0043
3240.00,-0.0043
3238.00,-0.0043
3236.00,-0.0043
3234.00,-0.0043
3232.00,-0.0043
3230.00,-0.0043
3228.00,-0.0043
3226.00,-0.0043
3224.00,-0.0043
3222.00,-0.0043
3220.00,-0.0043
3218.00,-0.0043
3216.00,-0.0043
3214.00,-0.0043
3212.00,-0.0043
3210.00,-0.0043
3208.00,-0.0043
3206.00,-0.0042
3204.00,-0.0042
3202.00,-0.0042
3200.00,-0.0043
3198.00,-0.0042
3196.00,-0.0042
3194.00,-0.0042
3192.00,-0.0042
3190.00,-0.0042
3188.00,-0.0042
3186.00,-0.0042
3184.00,-0.0042
3182.00,-0.0042
3180.00,-0.0042
3178.00,-0.0042
3176.00,-0.0042
3174.00,-0.0042
3172.00,-0.0042
3170.00,-0.0042
3168.00,-0.0042
3166.00,-0.0042
3164.00,-0.0042
3162.00,-0.0042
3160.00,-0.0042
3158.00,-0.0042
3156.00,-0.0042
3154.00,-0.0042
3152.00,-0.0042
3150.00,-0.0042
3148.00,-0.0042
3146.00,-0.0042
3144.00,-0.0042
3142.00,-0.0042
3140.00,-0.0042
3138.00,-0.0042
3136.00,-0.0042
3134.00,-0.0042
3132.00,-0.0042
3130.00,-0.0042
3128.00,-0.0042
3126.00,-0.0042
3124.00,-0.0042
3122.00,-0.0042
3120.00,-0.0042
3118.00,-0.0042
3116.00,-0.0042
3114.00,-0.0041
3112.00,-0.0041
3110.00,-0.0041
3108.00,-0.0041
3106.00,-0.0041
3104.00,-0.0041
3102.00,-0.0041
3100.00,-0.0041
3098.00,-0.0041
3096.00,-0.0041
3094.00,-0.0041
3092.00,-0.0041
3090.00,-0.0041
3088.00,-0.0041
3086.00,-0.0041
3084.00,-0.0041
3082.00,-0.0041
3080.00,-0.0041
3078.00,-0.0041
3076.00,-0.0041
3074.00,-0.0041
3072.00,-0.0041
3070.00,-0.0041
3068.00,-0.0041
3066.00,-0.0041
3064.00,-0.0041
3062.00,-0.0041
3060.00,-0.0041
3058.00,-0.0041
3056.00,-0.0041
3054.00,-0.0041
3052.00,-0.0041
3050.00,-0.0041
3048.00,-0.0041
3046.00,-0.0041
3044.00,-0.0041
3042.00,-0.0041
3040.00,-0.0041
3038.00,-0.0041
3036.00,-0.0041
3034.00,-0.0041
3032.00,-0.0040
3030.00,-0.0040
3028.00,-0.0040
3026.00,-0.0040
3024.00,-0.0040
3022.00,-0.0040
3020.00,-0.0040
3018.00,-0.0040
3016.00,-0.0040
3014.00,-0.0040
3012.00,-0.0040
3010.00,-0.0040
3008.00,-0.0040
3006.00,-0.0040
3004.00,-0.0040
3002.00,-0.0040
3000.00,-0.0040
2998.00,-0.0040
2996.00,-0.0040
2994.00,-0.0040
2992.00,-0.0040
2990.00,-0.0040
2988.00,-0.0039
2986.00,-0.0039
2984.00,-0.0039
2982.00,-0.0039
2980.00,-0.0039
2978.00,-0.0039
2976.00,-0.0039
2974.00,-0.0039
2972.00,-0.0039
2970.00,-0.0039
2968.00,-0.0039
2966.00,-0.0039
2964.00,-0.0039
2962.00,-0.0039
2960.00,-0.0039
2958.00,-0.0039
2956.00,-0.0039
2954.00,-0.0039
2952.00,-0.0039
2950.00,-0.0039
2948.00,-0.0038
2946.00,-0.0038
2944.00,-0.0038
2942.00,-0.0038
2940.00,-0.0038
2938.00,-0.0038
2936.00,-0.0038
2934.00,-0.0038
2932.00,-0.0038
2930.00,-0.0038
2928.00,-0.0039
2926.00,-0.0039
2924.00,-0.0039
2922.00,-0.0039
2920.00,-0.0040
2918.00,-0.0040
2916.00,-0.0040
2914.00,-0.0039
2912.00,-0.0039
2910.00,-0.0039
2908.00,-0.0039
2906.00,-0.0039
2904.00,-0.0039
2902.00,-0.0039
2900.00,-0.0039
2898.00,-0.0039
2896.00,-0.0039
2894.00,-0.0039
2892.00,-0.0039
2890.00,-0.0039
2888.00,-0.0039
2886.00,-0.0039
2884.00,-0.0038
2882.00,-0.0038
2880.00,-0.0038
2878.00,-0.0038
2876.00,-0.0039
2874.00,-0.0039
2872.00,-0.0039
2870.00,-0.0039
2868.00,-0.0039
2866.00,-0.0039
2864.00,-0.0039
2862.00,-0.0039
2860.00,-0.0039
2858.00,-0.0039
2856.00,-0.0040
2854.00,-0.0040
2852.00,-0.0040
2850.00,-0.0040
2848.00,-0.0040
2846.00,-0.0040
2844.00,-0.0039
2842.00,-0.0039
2840.00,-0.0039
2838.00,-0.0039
2836.00,-0.0039
2834.00,-0.0039
2832.00,-0.0039
2830.00,-0.0039
2828.00,-0.0039
2826.00,-0.0039
2824.00,-0.0039
2822.00,-0.0039
2820.00,-0.0039
2818.00,-0.0039
2816.00,-0.0039
2814.00,-0.0039
2812.00,-0.0039
2810.00,-0.0039
2808.00,-0.0039
2806.00,-0.0039
2804.00,-0.0039
2802.00,-0.0039
2800.00,-0.0039
2798.00,-0.0039
2796.00,-0.0039
2794.00,-0.0039
2792.00,-0.0039
2790.00,-0.0039
2788.00,-0.0039
2786.00,-0.0039
2784.00,-0.0039
2782.00,-0.0039
2780.00,-0.0039
2778.00,-0.0039
2776.00,-0.0039
2774.00,-0.0039
2772.00,-0.0039
2770.00,-0.0039
2768.00,-0.0039
2766.00,-0.0039
2764.00,-0.0039
2762.00,-0.0039
2760.00,-0.0039
2758.00,-0.0039
2756.00,-0.0039
2754.00,-0.0039
2752.00,-0.0039
2750.00,-0.0039
2748.00,-0.0039
2746.00,-0.0039
2744.00,-0.0039
2742.00,-0.0039
2740.00,-0.0039
2738.00,-0.0039
2736.00,-0.0039
2734.00,-0.0039
2732.00,-0.0039
2730.00,-0.0039
2728.00,-0.0039
2726.00,-0.0039
2724.00,-0.0039
2722.00,-0.0039
2720.00,-0.0039
2718.00,-0.0039
2716.00,-0.0039
2714.00,-0.0039
2712.00,-0.0039
2710.00,-0.0039
2708.00,-0.0039
2706.00,-0.0039
2704.00,-0.0039
2702.00,-0.0039
2700.00,-0.0039
2698.00,-0.0039
2696.00,-0.0039
2694.00,-0.0039
2692.00,-0.0039
2690.00,-0.0039
2688.00,-0.0039
2686.00,-0.0039
2684.00,-0.0039
2682.00,-0.0039
2680.00,-0.0039
2678.00,-0.0039
2676.00,-0.0039
2674.00,-0.0039
2672.00,-0.0039
2670.00,-0.0039
2668.00,-0.0039
2666.00,-0.0039
2664.00,-0.0039
2662.00,-0.0039
2660.00,-0.0039
2658.00,-0.0039
2656.00,-0.0039
2654.00,-0.0039
2652.00,-0.0039
2650.00,-0.0039
2648.00,-0.0039
2646.00,-0.0039
2644.00,-0.0039
2642.00,-0.0039
2640.00,-0.0039
2638.00,-0.0039
2636.00,-0.0039
2634.00,-0.0039
2632.00,-0.0039
2630.00,-0.0039
2628.00,-0.0039
2626.00,-0.0039
2624.00,-0.0039
2622.00,-0.0039
2620.00,-0.0039
2618.00,-0.0039
2616.00,-0.0039
2614.00,-0.0039
2612.00,-0.0039
2610.00,-0.0039
2608.00,-0.0039
2606.00,-0.0039
2604.00,-0.0039
2602.00,-0.0039
2600.00,-0.0039
2598.00,-0.0039
2596.00,-0.0039
2594.00,-0.0039
2592.00,-0.0039
2590.00,-0.0039
2588.00,-0.0039
2586.00,-0.0039
2584.00,-0.0039
2582.00,-0.0038
2580.00,-0.0038
2578.00,-0.0038
2576.00,-0.0038
2574.00,-0.0038
2572.00,-0.0039
2570.00,-0.0039
2568.00,-0.0039
2566.00,-0.0039
2564.00,-0.0039
2562.00,-0.0039
2560.00,-0.0039
2558.00,-0.0039
2556.00,-0.0039
2554.00,-0.0039
2552.00,-0.0038
2550.00,-0.0039
2548.00,-0.0039
2546.00,-0.0039
2544.00,-0.0039
2542.00,-0.0039
2540.00,-0.0039
2538.00,-0.0039
2536.00,-0.0039
2534.00,-0.0039
2532.00,-0.0039
2530.00,-0.0039
2528.00,-0.0039
2526.00,-0.0038
2524.00,-0.0038
2522.00,-0.0038
2520.00,-0.0038
2518.00,-0.0038
2516.00,-0.0038
2514.00,-0.0038
2512.00,-0.0038
2510.00,-0.0038
2508.00,-0.0038
2506.00,-0.0038
2504.00,-0.0038
2502.00,-0.0038
2500.00,-0.0039
2498.00,-0.0039
2496.00,-0.0039
2494.00,-0.0039
2492.00,-0.0039
2490.00,-0.0039
2488.00,-0.0038
2486.00,-0.0038
2484.00,-0.0038
2482.00,-0.0039
2480.00,-0.0038
2478.00,-0.0039
2476.00,-0.0039
2474.00,-0.0039
2472.00,-0.0039
2470.00,-0.0039
2468.00,-0.0039
2466.00,-0.0038
2464.00,-0.0039
2462.00,-0.0039
2460.00,-0.0039
2458.00,-0.0038
2456.00,-0.0038
2454.00,-0.0038
2452.00,-0.0038
2450.00,-0.0038
2448.00,-0.0038
2446.00,-0.0039
2444.00,-0.0039
2442.00,-0.0039
2440.00,-0.0039
2438.00,-0.0039
2436.00,-0.0039
2434.00,-0.0039
2432.00,-0.0039
2430.00,-0.0039
2428.00,-0.0039
2426.00,-0.0039
2424.00,-0.0039
2422.00,-0.0039
2420.00,-0.0038
2418.00,-0.0039
2416.00,-0.0039
2414.00,-0.0039
2412.00,-0.0039
2410.00,-0.0039
2408.00,-0.0039
2406.00,-0.0039
2404.00,-0.0039
2402.00,-0.0039
2400.00,-0.0039
2398.00,-0.0039
2396.00,-0.0039
2394.00,-0.0039
2392.00,-0.0039
2390.00,-0.0039
2388.00,-0.0039
2386.00,-0.0039
2384.00,-0.0039
2382.00,-0.0039
2380.00,-0.0039
2378.00,-0.0038
2376.00,-0.0038
2374.00,-0.0038
2372.00,-0.0039
2370.00,-0.0039
2368.00,-0.0038
2366.00,-0.0038
2364.00,-0.0039
2362.00,-0.0040
2360.00,-0.0041
2358.00,-0.0041
2356.00,-0.0040
2354.00,-0.0038
2352.00,-0.0036
2350.00,-0.0038
2348.00,-0.0041
2346.00,-0.0039
2344.00,-0.0039
2342.00,-0.0041
2340.00,-0.0041
2338.00,-0.0040
2336.00,-0.0040
2334.00,-0.0040
2332.00,-0.0039
2330.00,-0.0039
2328.00,-0.0040
2326.00,-0.0041
2324.00,-0.0041
2322.00,-0.0040
2320.00,-0.0040
2318.00,-0.0041
2316.00,-0.0042
2314.00,-0.0041
2312.00,-0.0040
2310.00,-0.0040
2308.00,-0.0040
2306.00,-0.0040
2304.00,-0.0040
2302.00,-0.0040
2300.00,-0.0040
2298.00,-0.0040
2296.00,-0.0039
2294.00,-0.0039
2292.00,-0.0039
2290.00,-0.0039
2288.00,-0.0039
2286.00,-0.0039
2284.00,-0.0039
2282.00,-0.0039
2280.00,-0.0039
2278.00,-0.0039
2276.00,-0.0039
2274.00,-0.0039
2272.00,-0.0039
2270.00,-0.0039
2268.00,-0.0039
2266.00,-0.0039
2264.00,-0.0039
2262.00,-0.0039
2260.00,-0.0039
2258.00,-0.0039
2256.00,-0.0039
2254.00,-0.0039
2252.00,-0.0039
2250.00,-0.0039
2248.00,-0.0039
2246.00,-0.0039
2244.00,-0.0039
2242.00,-0.0039
2240.00,-0.0039
2238.00,-0.0039
2236.00,-0.0039
2234.00,-0.0039
2232.00,-0.0038
2230.00,-0.0038
2228.00,-0.0038
2226.00,-0.0038
2224.00,-0.0038
2222.00,-0.0038
2220.00,-0.0039
2218.00,-0.0039
2216.00,-0.0039
2214.00,-0.0038
2212.00,-0.0038
2210.00,-0.0038
2208.00,-0.0038
2206.00,-0.0038
2204.00,-0.0038
2202.00,-0.0038
2200.00,-0.0038
2198.00,-0.0038
2196.00,-0.0038
2194.00,-0.0039
2192.00,-0.0039
2190.00,-0.0039
2188.00,-0.0039
2186.00,-0.0039
2184.00,-0.0039
2182.00,-0.0039
2180.00,-0.0039
2178.00,-0.0039
2176.00,-0.0039
2174.00,-0.0039
2172.00,-0.0039
2170.00,-0.0039
2168.00,-0.0038
2166.00,-0.0038
2164.00,-0.0038
2162.00,-0.0038
2160.00,-0.0038
2158.00,-0.0039
2156.00,-0.0039
2154.00,-0.0039
2152.00,-0.0038
2150.00,-0.0038
2148.00,-0.0038
2146.00,-0.0038
2144.00,-0.0038
2142.00,-0.0038
2140.00,-0.0038
2138.00,-0.0038
2136.00,-0.0038
2134.00,-0.0038
2132.00,-0.0038
2130.00,-0.0038
2128.00,-0.0038
2126.00,-0.0038
2124.00,-0.0038
2122.00,-0.0039
2120.00,-0.0039
2118.00,-0.0038
2116.00,-0.0038
2114.00,-0.0039
2112.00,-0.0039
2110.00,-0.0038
2108.00,-0.0038
2106.00,-0.0038
2104.00,-0.0038
2102.00,-0.0038
2100.00,-0.0039
2098.00,-0.0038
2096.00,-0.0038
2094.00,-0.0039
2092.00,-0.0039
2090.00,-0.0039
2088.00,-0.0039
2086.00,-0.0038
2084.00,-0.0038
2082.00,-0.0038
2080.00,-0.0038
2078.00,-0.0038
2076.00,-0.0038
2074.00,-0.0039
2072.00,-0.0039
2070.00,-0.0038
2068.00,-0.0038
2066.00,-0.0038
2064.00,-0.0039
2062.00,-0.0039
2060.00,-0.0039
2058.00,-0.0038
2056.00,-0.0038
2054.00,-0.0038
2052.00,-0.0038
2050.00,-0.0038
2048.00,-0.0038
2046.00,-0.0038
2044.00,-0.0038
2042.00,-0.0038
2040.00,-0.0038
2038.00,-0.0038
2036.00,-0.0038
2034.00,-0.0038
2032.00,-0.0038
2030.00,-0.0038
2028.00,-0.0038
2026.00,-0.0038
2024.00,-0.0038
2022.00,-0.0038
2020.00,-0.0038
2018.00,-0.0038
2016.00,-0.0038
2014.00,-0.0038
2012.00,-0.0038
2010.00,-0.0038
2008.00,-0.0038
2006.00,-0.0038
2004.00,-0.0038
2002.00,-0.0038
2000.00,-0.0038
1998.00,-0.0038
1996.00,-0.0038
1994.00,-0.0038
1992.00,-0.0038
1990.00,-0.0038
1988.00,-0.0038
1986.00,-0.0038
1984.00,-0.0038
1982.00,-0.0038
1980.00,-0.0038
1978.00,-0.0038
1976.00,-0.0038
1974.00,-0.0038
1972.00,-0.0038
1970.00,-0.0038
1968.00,-0.0038
1966.00,-0.0038
1964.00,-0.0038
1962.00,-0.0038
1960.00,-0.0038
1958.00,-0.0038
1956.00,-0.0038
1954.00,-0.0038
1952.00,-0.0038
1950.00,-0.0038
1948.00,-0.0038
1946.00,-0.0038
1944.00,-0.0038
1942.00,-0.0038
1940.00,-0.0038
1938.00,-0.0038
1936.00,-0.0038
1934.00,-0.0038
1932.00,-0.0038
1930.00,-0.0038
1928.00,-0.0038
1926.00,-0.0038
1924.00,-0.0038
1922.00,-0.0038
1920.00,-0.0038
1918.00,-0.0038
1916.00,-0.0038
1914.00,-0.0038
1912.00,-0.0038
1910.00,-0.0038
1908.00,-0.0038
1906.00,-0.0038
1904.00,-0.0038
1902.00,-0.0038
1900.00,-0.0038
1898.00,-0.0038
1896.00,-0.0038
1894.00,-0.0038
1892.00,-0.0038
1890.00,-0.0038
1888.00,-0.0038
1886.00,-0.0038
1884.00,-0.0038
1882.00,-0.0038
1880.00,-0.0038
1878.00,-0.0038
1876.00,-0.0038
1874.00,-0.0038
1872.00,-0.0038
1870.00,-0.0038
1868.00,-0.0038
1866.00,-0.0038
1864.00,-0.0038
1862.00,-0.0038
1860.00,-0.0038
1858.00,-0.0038
1856.00,-0.0038
1854.00,-0.0038
1852.00,-0.0038
1850.00,-0.0038
1848.00,-0.0038
1846.00,-0.0038
1844.00,-0.0038
1842.00,-0.0038
1840.00,-0.0038
1838.00,-0.0038
1836.00,-0.0038
1834.00,-0.0038
1832.00,-0.0038
1830.00,-0.0038
1828.00,-0.0038
1826.00,-0.0038
1824.00,-0.0038
1822.00,-0.0038
1820.00,-0.0038
1818.00,-0.0038
1816.00,-0.0038
1814.00,-0.0038
1812.00,-0.0038
1810.00,-0.0038
1808.00,-0.0038
1806.00,-0.0038
1804.00,-0.0038
1802.00,-0.0038
1800.00,-0.0038
1798.00,-0.0038
1796.00,-0.0041
1794.00,-0.0046
1792.00,-0.0049
1790.00,-0.0043
1788.00,-0.0039
1786.00,-0.0038
1784.00,-0.0038
1782.00,-0.0038
1780.00,-0.0038
1778.00,-0.0038
1776.00,-0.0038
1774.00,-0.0038
1772.00,-0.0038
1770.00,-0.0038
1768.00,-0.0038
1766.00,-0.0038
1764.00,-0.0038
1762.00,-0.0038
1760.00,-0.0038
1758.00,-0.0038
1756.00,-0.0038
1754.00,-0.0038
1752.00,-0.0038
1750.00,-0.0038
1748.00,-0.0038
1746.00,-0.0038
1744.00,-0.0038
1742.00,-0.0038
1740.00,-0.0039
1738.00,-0.0039
1736.00,-0.0038
1734.00,-0.0038
1732.00,-0.0038
1730.00,-0.0038
1728.00,-0.0038
1726.00,-0.0038
1724.00,-0.0039
1722.00,-0.0039
1720.00,-0.0038
1718.00,-0.0038
1716.00,-0.0038
1714.00,-0.0039
1712.00,-0.0039
1710.00,-0.0039
1708.00,-0.0039
1706.00,-0.0039
1704.00,-0.0039
1702.00,-0.0039
1700.00,-0.0039
1698.00,-0.0039
1696.00,-0.0039
1694.00,-0.0039
1692.00,-0.0039
1690.00,-0.0039
1688.00,-0.0039
1686.00,-0.0039
1684.00,-0.0039
1682.00,-0.0039
1680.00,-0.0039
1678.00,-0.0039
1676.00,-0.0039
1674.00,-0.0039
1672.00,-0.0039
1670.00,-0.0039
1668.00,-0.0039
1666.00,-0.0039
1664.00,-0.0039
1662.00,-0.0039
1660.00,-0.0039
1658.00,-0.0039
1656.00,-0.0039
1654.00,-0.0039
1652.00,-0.0039
1650.00,-0.0039
1648.00,-0.0039
1646.00,-0.0039
1644.00,-0.0039
1642.00,-0.0039
1640.00,-0.0039
1638.00,-0.0039
1636.00,-0.0039
1634.00,-0.0040
1632.00,-0.0040
1630.00,-0.0040
1628.00,-0.0039
1626.00,-0.0040
1624.00,-0.0040
1622.00,-0.0040
1620.00,-0.0040
1618.00,-0.0040
1616.00,-0.0040
1614.00,-0.0040
1612.00,-0.0039
1610.00,-0.0039
1608.00,-0.0039
1606.00,-0.0039
1604.00,-0.0039
1602.00,-0.0039
1600.00,-0.0039
1598.00,-0.0039
1596.00,-0.0039
1594.00,-0.0039
1592.00,-0.0039
1590.00,-0.0039
1588.00,-0.0039
1586.00,-0.0039
1584.00,-0.0039
1582.00,-0.0039
1580.00,-0.0039
1578.00,-0.0039
1576.00,-0.0039
1574.00,-0.0039
1572.00,-0.0039
1570.00,-0.0039
1568.00,-0.0039
1566.00,-0.0039
1564.00,-0.0039
1562.00,-0.0039
1560.00,-0.0039
1558.00,-0.0039
1556.00,-0.0039
1554.00,-0.0039
1552.00,-0.0039
1550.00,-0.0039
1548.00,-0.0039
1546.00,-0.0039
1544.00,-0.0039
1542.00,-0.0039
1540.00,-0.0039
1538.00,-0.0039
1536.00,-0.0039
1534.00,-0.0038
1532.00,-0.0039
1530.00,-0.0039
1528.00,-0.0038
1526.00,-0.0038
1524.00,-0.0038
1522.00,-0.0038
1520.00,-0.0038
1518.00,-0.0038
1516.00,-0.0038
1514.00,-0.0039
1512.00,-0.0038
1510.00,-0.0039
1508.00,-0.0039
1506.00,-0.0039
1504.00,-0.0039
1502.00,-0.0039
1500.00,-0.0040
1498.00,-0.0040
1496.00,-0.0039
1494.00,-0.0039
1492.00,-0.0038
1490.00,-0.0038
1488.00,-0.0038
1486.00,-0.0038
1484.00,-0.0038
1482.00,-0.0038
1480.00,-0.0038
1478.00,-0.0038
1476.00,-0.0038
1474.00,-0.0038
1472.00,-0.0039
1470.00,-0.0039
1468.00,-0.0039
1466.00,-0.0039
1464.00,-0.0039
1462.00,-0.0039
1460.00,-0.0038
1458.00,-0.0038
1456.00,-0.0038
1454.00,-0.0038
1452.00,-0.0039
1450.00,-0.0039
1448.00,-0.0038
1446.00,-0.0038
1444.00,-0.0038
1442.00,-0.0038
1440.00,-0.0038
1438.00,-0.0038
1436.00,-0.0038
1434.00,-0.0038
1432.00,-0.0038
1430.00,-0.0038
1428.00,-0.0038
1426.00,-0.0038
1424.00,-0.0038
1422.00,-0.0038
1420.00,-0.0038
1418.00,-0.0038
1416.00,-0.0038
1414.00,-0.0038
1412.00,-0.0039
1410.00,-0.0039
1408.00,-0.0039
1406.00,-0.0039
1404.00,-0.0039
1402.00,-0.0039
1400.00,-0.0039
1398.00,-0.0038
1396.00,-0.0038
1394.00,-0.0038
1392.00,-0.0038
1390.00,-0.0038
1388.00,-0.0038
1386.00,-0.0039
1384.00,-0.0039
1382.00,-0.0039
1380.00,-0.0038
1378.00,-0.0038
1376.00,-0.0038
1374.00,-0.0038
1372.00,-0.0038
1370.00,-0.0038
1368.00,-0.0038
1366.00,-0.0038
1364.00,-0.0039
1362.00,-0.0039
1360.00,-0.0039
1358.00,-0.0039
1356.00,-0.0039
1354.00,-0.0039
1352.00,-0.0039
1350.00,-0.0039
1348.00,-0.0039
1346.00,-0.0039
1344.00,-0.0039
1342.00,-0.0039
1340.00,-0.0039
1338.00,-0.0039
1336.00,-0.0039
1334.00,-0.0039
1332.00,-0.0039
1330.00,-0.0039
1328.00,-0.0039
1326.00,-0.0039
1324.00,-0.0039
1322.00,-0.0039
1320.00,-0.0039
1318.00,-0.0039
1316.00,-0.0039
1314.00,-0.0039
1312.00,-0.0039
1310.00,-0.0039
1308.00,-0.0039
1306.00,-0.0039
1304.00,-0.0039
1302.00,-0.0039
1300.00,-0.0039
1298.00,-0.0039
1296.00,-0.0039
1294.00,-0.0039
1292.00,-0.0039
1290.00,-0.0039
1288.00,-0.0039
1286.00,-0.0039
1284.00,-0.0039
1282.00,-0.0039
1280.00,-0.0039
1278.00,-0.0039
1276.00,-0.0039
1274.00,-0.0039
1272.00,-0.0039
1270.00,-0.0039
1268.00,-0.0039
1266.00,-0.0039
1264.00,-0.0040
1262.00,-0.0040
1260.00,-0.0040
1258.00,-0.0041
1256.00,-0.0041
1254.00,-0.0041
1252.00,-0.0041
1250.00,-0.0041
1248.00,-0.0041
1246.00,-0.0041
1244.00,-0.0041
1242.00,-0.0041
1240.00,-0.0040
1238.00,-0.0040
1236.00,-0.0040
1234.00,-0.0039
1232.00,-0.0039
1230.00,-0.0039
1228.00,-0.0039
1226.00,-0.0039
1224.00,-0.0039
1222.00,-0.0039
1220.00,-0.0039
1218.00,-0.0039
1216.00,-0.0039
1214.00,-0.0039
1212.00,-0.0040
1210.00,-0.0040
1208.00,-0.0040
1206.00,-0.0040
1204.00,-0.0040
1202.00,-0.0040
1200.00,-0.0040
1198.00,-0.0040
1196.00,-0.0040
1194.00,-0.0040
1192.00,-0.0040
1190.00,-0.0040
1188.00,-0.0040
1186.00,-0.0040
1184.00,-0.0040
1182.00,-0.0040
1180.00,-0.0040
1178.00,-0.0040
1176.00,-0.0040
1174.00,-0.0040
1172.00,-0.0040
1170.00,-0.0040
1168.00,-0.0040
1166.00,-0.0040
1164.00,-0.0040
1162.00,-0.0040
1160.00,-0.0040
1158.00,-0.0040
1156.00,-0.0041
1154.00,-0.0041
1152.00,-0.0041
1150.00,-0.0041
1148.00,-0.0041
1146.00,-0.0040
1144.00,-0.0040
1142.00,-0.0041
1140.00,-0.0041
1138.00,-0.0040
1136.00,-0.0040
1134.00,-0.0041
1132.00,-0.0041
1130.00,-0.0041
1128.00,-0.0041
1126.00,-0.0041
1124.00,-0.0041
1122.00,-0.0041
1120.00,-0.0041
1118.00,-0.0041
1116.00,-0.0041
1114.00,-0.0041
1112.00,-0.0041
1110.00,-0.0041
1108.00,-0.0041
1106.00,-0.0041
1104.00,-0.0041
1102.00,-0.0041
1100.00,-0.0040
1098.00,-0.0040
1096.00,-0.0040
1094.00,-0.0041
1092.00,-0.0041
1090.00,-0.0041
1088.00,-0.0041
1086.00,-0.0041
1084.00,-0.0041
1082.00,-0.0041
1080.00,-0.0040
1078.00,-0.0040
1076.00,-0.0040
1074.00,-0.0040
1072.00,-0.0040
1070.00,-0.0040
1068.00,-0.0040
1066.00,-0.0040
1064.00,-0.0040
1062.00,-0.0040
1060.00,-0.0039
1058.00,-0.0039
1056.00,-0.0039
1054.00,-0.0040
1052.00,-0.0040
1050.00,-0.0039
1048.00,-0.0039
1046.00,-0.0039
1044.00,-0.0039
1042.00,-0.0039
1040.00,-0.0039
1038.00,-0.0039
1036.00,-0.0039
1034.00,-0.0040
1032.00,-0.0039
1030.00,-0.0039
1028.00,-0.0039
1026.00,-0.0039
1024.00,-0.0039
1022.00,-0.0039
1020.00,-0.0039
1018.00,-0.0039
1016.00,-0.0038
1014.00,-0.0039
1012.00,-0.0039
1010.00,-0.0039
1008.00,-0.0038
1006.00,-0.0039
1004.00,-0.0039
1002.00,-0.0039
1000.00,-0.0039
998.00,-0.0039
996.00,-0.0039
994.00,-0.0039
992.00,-0.0039
990.00,-0.0039
988.00,-0.0039
986.00,-0.0039
984.00,-0.0039
982.00,-0.0039
980.00,-0.0039
978.00,-0.0039
976.00,-0.0039
974.00,-0.0039
972.00,-0.0040
970.00,-0.0040
968.00,-0.0040
966.00,-0.0040
964.00,-0.0040
962.00,-0.0040
960.00,-0.0040
958.00,-0.0040
956.00,-0.0041
954.00,-0.0041
952.00,-0.0041
950.00,-0.0041
948.00,-0.0041
946.00,-0.0041
944.00,-0.0041
942.00,-0.0041
940.00,-0.0041
938.00,-0.0041
936.00,-0.0041
934.00,-0.0042
932.00,-0.0042
930.00,-0.0042
928.00,-0.0042
926.00,-0.0042
924.00,-0.0042
922.00,-0.0042
920.00,-0.0042
918.00,-0.0042
916.00,-0.0042
914.00,-0.0042
912.00,-0.0042
910.00,-0.0042
908.00,-0.0042
906.00,-0.0042
904.00,-0.0042
902.00,-0.0042
900.00,-0.0042
898.00,-0.0042
896.00,-0.0042
894.00,-0.0041
892.00,-0.0040
890.00,-0.0041
888.00,-0.0042
886.00,-0.0042
884.00,-0.0042
882.00,-0.0042
880.00,-0.0041
878.00,-0.0041
876.00,-0.0041
874.00,-0.0041
872.00,-0.0041
870.00,-0.0041
868.00,-0.0041
866.00,-0.0041
864.00,-0.0041
862.00,-0.0041
860.00,-0.0041
858.00,-0.0041
856.00,-0.0041
854.00,-0.0041
852.00,-0.0041
850.00,-0.0041
848.00,-0.0041
846.00,-0.0041
844.00,-0.0041
842.00,-0.0041
840.00,-0.0041
838.00,-0.0041
836.00,-0.0041
834.00,-0.0041
832.00,-0.0041
830.00,-0.0041
828.00,-0.0041
826.00,-0.0041
824.00,-0.0041
822.00,-0.0041
820.00,-0.0041
818.00,-0.0041
816.00,-0.0041
814.00,-0.0041
812.00,-0.0041
810.00,-0.0041
808.00,-0.0041
806.00,-0.0041
804.00,-0.0041
802.00,-0.0041
800.00,-0.0041
798.00,-0.0041
796.00,-0.0041
794.00,-0.0041
792.00,-0.0041
790.00,-0.0041
788.00,-0.0041
786.00,-0.0041
784.00,-0.0040
782.00,-0.0041
780.00,-0.0040
778.00,-0.0041
776.00,-0.0041
774.00,-0.0040
772.00,-0.0041
770.00,-0.0041
768.00,-0.0041
766.00,-0.0041
764.00,-0.0041
762.00,-0.0041
760.00,-0.0041
758.00,-0.0041
756.00,-0.0041
754.00,-0.0041
752.00,-0.0040
750.00,-0.0040
748.00,-0.0040
746.00,-0.0040
744.00,-0.0040
742.00,-0.0040
740.00,-0.0040
738.00,-0.0040
736.00,-0.0041
734.00,-0.0041
732.00,-0.0040
730.00,-0.0041
728.00,-0.0041
726.00,-0.0041
724.00,-0.0041
722.00,-0.0041
720.00,-0.0040
718.00,-0.0041
716.00,-0.0041
714.00,-0.0041
712.00,-0.0041
710.00,-0.0041
708.00,-0.0041
706.00,-0.0041
704.00,-0.0041
702.00,-0.0041
700.00,-0.0041
698.00,-0.0042
696.00,-0.0041
694.00,-0.0041
692.00,-0.0041
690.00,-0.0041
688.00,-0.0041
686.00,-0.0041
684.00,-0.0040
682.00,-0.0041
680.00,-0.0041
678.00,-0.0041
676.00,-0.0042
674.00,-0.0041
672.00,-0.0039
670.00,-0.0027
668.00,-0.0007
666.00,-0.0022
664.00,-0.0038
662.00,-0.0042
660.00,-0.0042
658.00,-0.0041
656.00,-0.0041
654.00,-0.0041
652.00,-0.0041
650.00,-0.0041
648.00,-0.0041
646.00,-0.0041
644.00,-0.0042
642.00,-0.0042
640.00,-0.0042
638.00,-0.0042
636.00,-0.0042
634.00,-0.0042
632.00,-0.0042
630.00,-0.0043
628.00,-0.0043
626.00,-0.0042
624.00,-0.0042
622.00,-0.0042
620.00,-0.0042
618.00,-0.0042
616.00,-0.0042
614.00,-0.0043
612.00,-0.0043
610.00,-0.0042
608.00,-0.0043
606.00,-0.0043
604.00,-0.0043
602.00,-0.0043
600.00,-0.0042
598.00,-0.0041
596.00,-0.0042
594.00,-0.0042
592.00,-0.0042
590.00,-0.0043
588.00,-0.0043
586.00,-0.0043
584.00,-0.0043
582.00,-0.0042
580.00,-0.0043
578.00,-0.0044
576.00,-0.0045
574.00,-0.0044
572.00,-0.0044
570.00,-0.0043
568.00,-0.0043
566.00,-0.0043
564.00,-0.0042
562.00,-0.0041
560.00,-0.0041
558.00,-0.0042
556.00,-0.0042
554.00,-0.0042
552.00,-0.0042
550.00,-0.0042
548.00,-0.0041
546.00,-0.0041
544.00,-0.0042
542.00,-0.0042
540.00,-0.0042
538.00,-0.0042
536.00,-0.0042
534.00,-0.0042
532.00,-0.0042
530.00,-0.0043
528.00,-0.0042
526.00,-0.0042
524.00,-0.0042
522.00,-0.0042
520.00,-0.0043
518.00,-0.0043
516.00,-0.0043
514.00,-0.0043
512.00,-0.0043
510.00,-0.0042
508.00,-0.0042
506.00,-0.0043
504.00,-0.0044
502.00,-0.0044
500.00,-0.0045
