Created as New Dataset,Sample 041 By Analyst Date Wednesday, April 02 2025
cm-1,A
4000.00,-0.0045
3998.00,-0.0045
3996.00,-0.0045
3994.00,-0.0045
3992.00,-0.0045
3990.00,-0.0045
3988.00,-0.0045
3986.00,-0.0045
3984.00,-0.0045
3982.00,-0.0045
3980.00,-0.0045
3978.00,-0.0045
3976.00,-0.0045
3974.00,-0.0045
3972.00,-0.0045
3970.00,-0.0045
3968.00,-0.0045
3966.00,-0.0045
3964.00,-0.0045
3962.00,-0.0045
3960.00,-0.0045
3958.00,-0.0045
3956.00,-0.0045
3954.00,-0.0045
3952.00,-0.0045
3950.00,-0.0044
3948.00,-0.0044
3946.00,-0.0044
3944.00,-0.0043
3942.00,-0.0044
3940.00,-0.0044
3938.00,-0.0044
3936.00,-0.0045
3934.00,-0.0044
3932.00,-0.0043
3930.00,-0.0043
3928.00,-0.0044
3926.00,-0.0044
3924.00,-0.0044
3922.00,-0.0043
3920.00,-0.0043
3918.00,-0.0042
3916.00,-0.0043
3914.00,-0.0043
3912.00,-0.0044
3910.00,-0.0045
3908.00,-0.0044
3906.00,-0.0043
3904.00,-0.0041
3902.00,-0.0039
3900.00,-0.0040
3898.00,-0.0041
3896.00,-0.0043
3894.00,-0.0043
3892.00,-0.0043
3890.00,-0.0043
3888.00,-0.0042
3886.00,-0.0042
3884.00,-0.0042
3882.00,-0.0041
3880.00,-0.0042
3878.00,-0.0043
3876.00,-0.0043
3874.00,-0.0043
3872.00,-0.0042
3870.00,-0.0042
3868.00,-0.0041
3866.00,-0.0041
3864.00,-0.0042
3862.00,-0.0042
3860.00,-0.0043
3858.00,-0.0043
3856.00,-0.0043
3854.00,-0.0042
3852.00,-0.0042
3850.00,-0.0041
3848.00,-0.0043
3846.00,-0.0043
3844.00,-0.0043
3842.00,-0.0042
3840.00,-0.0042
3838.00,-0.0042
3836.00,-0.0042
3834.00,-0.0042
3832.00,-0.0043
3830.00,-0.0043
3828.00,-0.0043
3826.00,-0.0043
3824.00,-0.0042
3822.00,-0.0042
3820.00,-0.0043
3818.00,-0.0042
3816.00,-0.0043
3814.00,-0.0043
3812.00,-0.0043
3810.00,-0.0044
3808.00,-0.0044
3806.00,-0.0044
3804.00,-0.0043
3802.00,-0.0043
3800.00,-0.0043
3798.00,-0.0042
3796.00,-0.0043
3794.00,-0.0043
3792.00,-0.0043
3790.00,-0.0044
3788.00,-0.0044
3786.00,-0.0043
3784.00,-0.0043
3782.00,-0.0043
3780.00,-0.0043
3778.00,-0.0044
3776.00,-0.0043
3774.00,-0.0043
3772.00,-0.0043
3770.00,-0.0043
3768.00,-0.0042
3766.00,-0.0042
3764.00,-0.0042
3762.00,-0.0042
3760.00,-0.0043
3758.00,-0.0042
3756.00,-0.0042
3754.00,-0.0042
3752.00,-0.0042
3750.00,-0.0042
3748.00,-0.0041
3746.00,-0.0040
3744.00,-0.0041
3742.00,-0.0040
3740.00,-0.0041
3738.00,-0.0041
3736.00,-0.0039
3734.00,-0.0038
3732.00,-0.0040
3730.00,-0.0042
3728.00,-0.0042
3726.00,-0.0042
3724.00,-0.0041
3722.00,-0.0041
3720.00,-0.0042
3718.00,-0.0042
3716.00,-0.0043
3714.00,-0.0042
3712.00,-0.0043
3710.00,-0.0042
3708.00,-0.0042
3706.00,-0.0043
3704.00,-0.0043
3702.00,-0.0043
3700.00,-0.0043
3698.00,-0.0042
3696.00,-0.0043
3694.00,-0.0043
3692.00,-0.0042
3690.00,-0.0041
3688.00,-0.0042
3686.00,-0.0041
3684.00,-0.0042
3682.00,-0.0042
3680.00,-0.0042
3678.00,-0.0041
3676.00,-0.0041
3674.00,-0.0041
3672.00,-0.0040
3670.00,-0.0041
3668.00,-0.0041
3666.00,-0.0041
3664.00,-0.0042
3662.00,-0.0043
3660.00,-0.0042
3658.00,-0.0042
3656.00,-0.0042
3654.00,-0.0041
3652.00,-0.0040
3650.00,-0.0039
3648.00,-0.0038
3646.00,-0.0039
3644.00,-0.0041
3642.00,-0.0042
3640.00,-0.0042
3638.00,-0.0043
3636.00,-0.0043
3634.00,-0.0043
3632.00,-0.0041
3630.00,-0.0040
3628.00,-0.0040
3626.00,-0.0040
3624.00,-0.0041
3622.00,-0.0041
3620.00,-0.0040
3618.00,-0.0040
3616.00,-0.0040
3614.00,-0.0040
3612.00,-0.0041
3610.00,-0.0040
3608.00,-0.0040
3606.00,-0.0041
3604.00,-0.0042
3602.00,-0.0042
3600.00,-0.0043
3598.00,-0.0042
3596.00,-0.0042
3594.00,-0.0042
3592.00,-0.0042
3590.00,-0.0041
3588.00,-0.0039
3586.00,-0.0039
3584.00,-0.0041
3582.00,-0.0042
3580.00,-0.0043
3578.00,-0.0043
3576.00,-0.0043
3574.00,-0.0043
3572.00,-0.0043
3570.00,-0.0042
3568.00,-0.0040
3566.00,-0.0039
3564.00,-0.0040
3562.00,-0.0042
3560.00,-0.0043
3558.00,-0.0043
3556.00,-0.0043
3554.00,-0.0043
3552.00,-0.0043
3550.00,-0.0043
3548.00,-0.0042
3546.00,-0.0042
3544.00,-0.0042
3542.00,-0.0042
3540.00,-0.0043
3538.00,-0.0044
3536.00,-0.0043
3534.00,-0.0043
3532.00,-0.0044
3530.00,-0.0044
3528.00,-0.0043
3526.00,-0.0043
3524.00,-0.0043
3522.00,-0.0043
3520.00,-0.0044
3518.00,-0.0044
3516.00,-0.0044
3514.00,-0.0044
3512.00,-0.0044
3510.00,-0.0044
3508.00,-0.0044
3506.00,-0.0044
3504.00,-0.0044
3502.00,-0.0044
3500.00,-0.0044
3498.00,-0.0044
3496.00,-0.0045
3494.00,-0.0045
3492.00,-0.0045
3490.00,-0.0045
3488.00,-0.0045
3486.00,-0.0045
3484.00,-0.0045
3482.00,-0.0045
3480.00,-0.0045
3478.00,-0.0045
3476.00,-0.0045
3474.00,-0.0045
3472.00,-0.0045
3470.00,-0.0045
3468.00,-0.0045
3466.00,-0.0045
3464.00,-0.0045
3462.00,-0.0045
3460.00,-0.0045
3458.00,-0.0045
3456.00,-0.0045
3454.00,-0.0045
3452.00,-0.0045
3450.00,-0.0045
3448.00,-0.0045
3446.00,-0.0045
3444.00,-0.0045
3442.00,-0.0045
3440.00,-0.0045
3438.00,-0.0045
3436.00,-0.0045
3434.00,-0.0045
3432.00,-0.0045
3430.00,-0.0045
3428.00,-0.0045
3426.00,-0.0045
3424.00,-0.0045
3422.00,-0.0044
3420.00,-0.0044
3418.00,-0.0045
3416.00,-0.0045
3414.00,-0.0045
3412.00,-0.0045
3410.00,-0.0045
3408.00,-0.0045
3406.00,-0.0045
3404.00,-0.0045
3402.00,-0.0045
3400.00,-0.0045
3398.00,-0.0045
3396.00,-0.0045
3394.00,-0.0045
3392.00,-0.0045
3390.00,-0.0045
3388.00,-0.0045
3386.00,-0.0045
3384.00,-0.0045
3382.00,-0.0045
3380.00,-0.0045
3378.00,-0.0045
3376.00,-0.0045
3374.00,-0.0045
3372.00,-0.0045
3370.00,-0.0045
3368.00,-0.0045
3366.00,-0.0045
3364.00,-0.0045
3362.00,-0.0045
3360.00,-0.0045
3358.00,-0.0045
3356.00,-0.0045
3354.00,-0.0045
3352.00,-0.0045
3350.00,-0.0045
3348.00,-0.0045
3346.00,-0.0045
3344.00,-0.0045
3342.00,-0.0045
3340.00,-0.0045
3338.00,-0.0045
3336.00,-0.0044
3334.00,-0.0044
3332.00,-0.0045
3330.00,-0.0045
3328.00,-0.0044
3326.00,-0.0044
3324.00,-0.0044
3322.00,-0.0044
3320.00,-0.0045
3318.00,-0.0044
3316.00,-0.0044
3314.00,-0.0045
3312.00,-0.0044
3310.00,-0.0044
3308.00,-0.0044
3306.00,-0.0044
3304.00,-0.0044
3302.00,-0.0044
3300.00,-0.0044
3298.00,-0.0044
3296.00,-0.0044
3294.00,-0.0044
3292.00,-0.0044
3290.00,-0.0044
3288.00,-0.0044
3286.00,-0.0044
3284.00,-0.0044
3282.00,-0.0044
3280.00,-0.0044
3278.00,-0.0044
3276.00,-0.0044
3274.00,-0.0044
3272.00,-0.0044
3270.00,-0.0044
3268.00,-0.0044
3266.00,-0.0044
3264.00,-0.0044
3262.00,-0.0044
3260.00,-0.0044
3258.00,-0.0044
3256.00,-0.0044
3254.00,-0.0044
3252.00,-0.0044
3250.00,-0.0044
3248.00,-0.0044
3246.00,-0.0044
3244.00,-0.0044
3242.00,-0.0044
3240.00,-0.0044
3238.00,-0.0044
3236.00,-0.0044
3234.00,-0.0044
3232.00,-0.0044
3230.00,-0.0044
3228.00,-0.0044
3226.00,-0.0044
3224.00,-0.0044
3222.00,-0.0044
3220.00,-0.0044
3218.00,-0.0044
3216.00,-0.0044
3214.00,-0.0044
3212.00,-0.0044
3210.00,-0.0044
3208.00,-0.0044
3206.00,-0.0044
3204.00,-0.0044
3202.00,-0.0044
3200.00,-0.0044
3198.00,-0.0044
3196.00,-0.0044
3194.00,-0.0043
3192.00,-0.0043
3190.00,-0.0043
3188.00,-0.0043
3186.00,-0.0043
3184.00,-0.0043
3182.00,-0.0043
3180.00,-0.0043
3178.00,-0.0043
3176.00,-0.0043
3174.00,-0.0043
3172.00,-0.0043
3170.00,-0.0043
3168.00,-0.0043
3166.00,-0.0043
3164.00,-0.0043
3162.00,-0.0043
3160.00,-0.0043
3158.00,-0.0043
3156.00,-0.0043
3154.00,-0.0043
3152.00,-0.0043
3150.00,-0.0043
3148.00,-0.0043
3146.00,-0.0043
3144.00,-0.0043
3142.00,-0.0043
3140.00,-0.0043
3138.00,-0.0043
3136.00,-0.0043
3134.00,-0.0043
3132.00,-0.0043
3130.00,-0.0043
3128.00,-0.0043
3126.00,-0.0043
3124.00,-0.0043
3122.00,-0.0043
3120.00,-0.0042
3118.00,-0.0042
3116.00,-0.0042
3114.00,-0.0043
3112.00,-0.0042
3110.00,-0.0042
3108.00,-0.0042
3106.00,-0.0042
3104.00,-0.0042
3102.00,-0.0042
3100.00,-0.0042
3098.00,-0.0042
3096.00,-0.0042
3094.00,-0.0042
3092.00,-0.0042
3090.00,-0.0042
3088.00,-0.0042
3086.00,-0.0042
3084.00,-0.0042
3082.00,-0.0042
3080.00,-0.0042
3078.00,-0.0042
3076.00,-0.0042
3074.00,-0.0042
3072.00,-0.0042
3070.00,-0.0042
3068.00,-0.0042
3066.00,-0.0042
3064.00,-0.0042
3062.00,-0.0042
3060.00,-0.0042
3058.00,-0.0042
3056.00,-0.0042
3054.00,-0.0042
3052.00,-0.0042
3050.00,-0.0042
3048.00,-0.0042
3046.00,-0.0042
3044.00,-0.0042
3042.00,-0.0042
3040.00,-0.0042
3038.00,-0.0042
3036.00,-0.0042
3034.00,-0.0042
3032.00,-0.0041
3030.00,-0.0042
3028.00,-0.0042
3026.00,-0.0041
3024.00,-0.0041
3022.00,-0.0041
3020.00,-0.0041
3018.00,-0.0041
3016.00,-0.0041
3014.00,-0.0041
3012.00,-0.0041
3010.00,-0.0041
3008.00,-0.0041
3006.00,-0.0041
3004.00,-0.0041
3002.00,-0.0041
3000.00,-0.0041
2998.00,-0.0041
2996.00,-0.0041
2994.00,-0.0041
2992.00,-0.0041
2990.00,-0.0041
2988.00,-0.0041
2986.00,-0.0040
2984.00,-0.0040
2982.00,-0.0040
2980.00,-0.0040
2978.00,-0.0040
2976.00,-0.0040
2974.00,-0.0040
2972.00,-0.0040
2970.00,-0.0040
2968.00,-0.0040
2966.00,-0.0040
2964.00,-0.0040
2962.00,-0.0040
2960.00,-0.0040
2958.00,-0.0040
2956.00,-0.0040
2954.00,-0.0040
2952.00,-0.0040
2950.00,-0.0040
2948.00,-0.0040
2946.00,-0.0039
2944.00,-0.0039
2942.00,-0.0039
2940.00,-0.0039
2938.00,-0.0039
2936.00,-0.0039
2934.00,-0.0039
2932.00,-0.0039
2930.00,-0.0039
2928.00,-0.0040
2926.00,-0.0040
2924.00,-0.0040
2922.00,-0.0041
2920.00,-0.0041
2918.00,-0.0041
2916.00,-0.0041
2914.00,-0.0040
2912.00,-0.0040
2910.00,-0.0040
2908.00,-0.0040
2906.00,-0.0040
2904.00,-0.0040
2902.00,-0.0040
2900.00,-0.0040
2898.00,-0.0040
2896.00,-0.0040
2894.00,-0.0040
2892.00,-0.0040
2890.00,-0.0040
2888.00,-0.0040
2886.00,-0.0040
2884.00,-0.0040
2882.00,-0.0039
2880.00,-0.0039
2878.00,-0.0040
2876.00,-0.0040
2874.00,-0.0040
2872.00,-0.0040
2870.00,-0.0040
2868.00,-0.0040
2866.00,-0.0040
2864.00,-0.0040
2862.00,-0.0040
2860.00,-0.0040
2858.00,-0.0040
2856.00,-0.0041
2854.00,-0.0041
2852.00,-0.0041
2850.00,-0.0041
2848.00,-0.0041
2846.00,-0.0041
2844.00,-0.0040
2842.00,-0.0040
2840.00,-0.0040
2838.00,-0.0040
2836.00,-0.0040
2834.00,-0.0040
2832.00,-0.0040
2830.00,-0.0040
2828.00,-0.0040
2826.00,-0.0040
2824.00,-0.0040
2822.00,-0.0040
2820.00,-0.0040
2818.00,-0.0040
2816.00,-0.0040
2814.00,-0.0040
2812.00,-0.0040
2810.00,-0.0040
2808.00,-0.0040
2806.00,-0.0040
2804.00,-0.0040
2802.00,-0.0040
2800.00,-0.0040
2798.00,-0.0040
2796.00,-0.0040
2794.00,-0.0040
2792.00,-0.0040
2790.00,-0.0040
2788.00,-0.0040
2786.00,-0.0040
2784.00,-0.0040
2782.00,-0.0040
2780.00,-0.0040
2778.00,-0.0040
2776.00,-0.0040
2774.00,-0.0040
2772.00,-0.0040
2770.00,-0.0040
2768.00,-0.0040
2766.00,-0.0040
2764.00,-0.0040
2762.00,-0.0040
2760.00,-0.0040
2758.00,-0.0040
2756.00,-0.0040
2754.00,-0.0040
2752.00,-0.0040
2750.00,-0.0040
2748.00,-0.0040
2746.00,-0.0040
2744.00,-0.0040
2742.00,-0.0040
2740.00,-0.0040
2738.00,-0.0040
2736.00,-0.0040
2734.00,-0.0040
2732.00,-0.0040
2730.00,-0.0040
2728.00,-0.0040
2726.00,-0.0040
2724.00,-0.0040
2722.00,-0.0040
2720.00,-0.0040
2718.00,-0.0040
2716.00,-0.0040
2714.00,-0.0040
2712.00,-0.0040
2710.00,-0.0040
2708.00,-0.0040
2706.00,-0.0040
2704.00,-0.0040
2702.00,-0.0040
2700.00,-0.0040
2698.00,-0.0040
2696.00,-0.0040
2694.00,-0.0040
2692.00,-0.0040
2690.00,-0.0040
2688.00,-0.0040
2686.00,-0.0040
2684.00,-0.0040
2682.00,-0.0040
2680.00,-0.0040
2678.00,-0.0040
2676.00,-0.0040
2674.00,-0.0040
2672.00,-0.0040
2670.00,-0.0040
2668.00,-0.0040
2666.00,-0.0040
2664.00,-0.0040
2662.00,-0.0040
2660.00,-0.0040
2658.00,-0.0040
2656.00,-0.0040
2654.00,-0.0040
2652.00,-0.0040
2650.00,-0.0040
2648.00,-0.0040
2646.00,-0.0040
2644.00,-0.0040
2642.00,-0.0039
2640.00,-0.0039
2638.00,-0.0039
2636.00,-0.0040
2634.00,-0.0040
2632.00,-0.0040
2630.00,-0.0040
2628.00,-0.0040
2626.00,-0.0040
2624.00,-0.0040
2622.00,-0.0040
2620.00,-0.0040
2618.00,-0.0040
2616.00,-0.0040
2614.00,-0.0040
2612.00,-0.0040
2610.00,-0.0040
2608.00,-0.0039
2606.00,-0.0039
2604.00,-0.0040
2602.00,-0.0040
2600.00,-0.0040
2598.00,-0.0040
2596.00,-0.0040
2594.00,-0.0040
2592.00,-0.0040
2590.00,-0.0039
2588.00,-0.0039
2586.00,-0.0039
2584.00,-0.0039
2582.00,-0.0039
2580.00,-0.0039
2578.00,-0.0039
2576.00,-0.0039
2574.00,-0.0039
2572.00,-0.0039
2570.00,-0.0039
2568.00,-0.0039
2566.00,-0.0039
2564.00,-0.0040
2562.00,-0.0040
2560.00,-0.0040
2558.00,-0.0039
2556.00,-0.0039
2554.00,-0.0039
2552.00,-0.0039
2550.00,-0.0039
2548.00,-0.0039
2546.00,-0.0039
2544.00,-0.0039
2542.00,-0.0039
2540.00,-0.0039
2538.00,-0.0039
2536.00,-0.0040
2534.00,-0.0039
2532.00,-0.0039
2530.00,-0.0039
2528.00,-0.0039
2526.00,-0.0039
2524.00,-0.0039
2522.00,-0.0039
2520.00,-0.0039
2518.00,-0.0039
2516.00,-0.0039
2514.00,-0.0039
2512.00,-0.0039
2510.00,-0.0039
2508.00,-0.0039
2506.00,-0.0039
2504.00,-0.0039
2502.00,-0.0039
2500.00,-0.0039
2498.00,-0.0039
2496.00,-0.0039
2494.00,-0.0039
2492.00,-0.0039
2490.00,-0.0039
2488.00,-0.0039
2486.00,-0.0039
2484.00,-0.0039
2482.00,-0.0039
2480.00,-0.0039
2478.00,-0.0039
2476.00,-0.0039
2474.00,-0.0039
2472.00,-0.0039
2470.00,-0.0039
2468.00,-0.0039
2466.00,-0.0039
2464.00,-0.0039
2462.00,-0.0039
2460.00,-0.0039
2458.00,-0.0039
2456.00,-0.0039
2454.00,-0.0039
2452.00,-0.0039
2450.00,-0.0039
2448.00,-0.0039
2446.00,-0.0039
2444.00,-0.0039
2442.00,-0.0040
2440.00,-0.0039
2438.00,-0.0039
2436.00,-0.0039
2434.00,-0.0039
2432.00,-0.0039
2430.00,-0.0040
2428.00,-0.0040
2426.00,-0.0039
2424.00,-0.0039
2422.00,-0.0039
2420.00,-0.0039
2418.00,-0.0040
2416.00,-0.0040
2414.00,-0.0039
2412.00,-0.0039
2410.00,-0.0039
2408.00,-0.0040
2406.00,-0.0040
2404.00,-0.0039
2402.00,-0.0039
2400.00,-0.0039
2398.00,-0.0039
2396.00,-0.0039
2394.00,-0.0039
2392.00,-0.0039
2390.00,-0.0039
2388.00,-0.0040
2386.00,-0.0040
2384.00,-0.0040
2382.00,-0.0040
2380.00,-0.0040
2378.00,-0.0039
2376.00,-0.0039
2374.00,-0.0040
2372.00,-0.0041
2370.00,-0.0040
2368.00,-0.0038
2366.00,-0.0037
2364.00,-0.0037
2362.00,-0.0037
2360.00,-0.0039
2358.00,-0.0039
2356.00,-0.0039
2354.00,-0.0038
2352.00,-0.0036
2350.00,-0.0037
2348.00,-0.0043
2346.00,-0.0043
2344.00,-0.0041
2342.00,-0.0042
2340.00,-0.0041
2338.00,-0.0039
2336.00,-0.0038
2334.00,-0.0038
2332.00,-0.0037
2330.00,-0.0037
2328.00,-0.0038
2326.00,-0.0039
2324.00,-0.0040
2322.00,-0.0039
2320.00,-0.0040
2318.00,-0.0041
2316.00,-0.0041
2314.00,-0.0040
2312.00,-0.0039
2310.00,-0.0039
2308.00,-0.0039
2306.00,-0.0039
2304.00,-0.0039
2302.00,-0.0039
2300.00,-0.0039
2298.00,-0.0040
2296.00,-0.0040
2294.00,-0.0040
2292.00,-0.0039
2290.00,-0.0039
2288.00,-0.0039
2286.00,-0.0039
2284.00,-0.0039
2282.00,-0.0040
2280.00,-0.0040
2278.00,-0.0039
2276.00,-0.0039
2274.00,-0.0039
2272.00,-0.0039
2270.00,-0.0039
2268.00,-0.0040
2266.00,-0.0039
2264.00,-0.0039
2262.00,-0.0039
2260.00,-0.0039
2258.00,-0.0039
2256.00,-0.0039
2254.00,-0.0039
2252.00,-0.0039
2250.00,-0.0039
2248.00,-0.0039
2246.00,-0.0039
2244.00,-0.0039
2242.00,-0.0039
2240.00,-0.0039
2238.00,-0.0039
2236.00,-0.0039
2234.00,-0.0039
2232.00,-0.0039
2230.00,-0.0039
2228.00,-0.0039
2226.00,-0.0039
2224.00,-0.0039
2222.00,-0.0039
2220.00,-0.0039
2218.00,-0.0039
2216.00,-0.0039
2214.00,-0.0039
2212.00,-0.0039
2210.00,-0.0039
2208.00,-0.0039
2206.00,-0.0039
2204.00,-0.0039
2202.00,-0.0039
2200.00,-0.0039
2198.00,-0.0039
2196.00,-0.0039
2194.00,-0.0039
2192.00,-0.0039
2190.00,-0.0039
2188.00,-0.0039
2186.00,-0.0039
2184.00,-0.0039
2182.00,-0.0039
2180.00,-0.0039
2178.00,-0.0039
2176.00,-0.0039
2174.00,-0.0039
2172.00,-0.0039
2170.00,-0.0039
2168.00,-0.0039
2166.00,-0.0039
2164.00,-0.0039
2162.00,-0.0039
2160.00,-0.0039
2158.00,-0.0039
2156.00,-0.0039
2154.00,-0.0039
2152.00,-0.0039
2150.00,-0.0039
2148.00,-0.0039
2146.00,-0.0039
2144.00,-0.0039
2142.00,-0.0039
2140.00,-0.0039
2138.00,-0.0039
2136.00,-0.0039
2134.00,-0.0039
2132.00,-0.0039
2130.00,-0.0039
2128.00,-0.0039
2126.00,-0.0039
2124.00,-0.0039
2122.00,-0.0039
2120.00,-0.0039
2118.00,-0.0039
2116.00,-0.0039
2114.00,-0.0039
2112.00,-0.0039
2110.00,-0.0039
2108.00,-0.0039
2106.00,-0.0039
2104.00,-0.0039
2102.00,-0.0039
2100.00,-0.0039
2098.00,-0.0039
2096.00,-0.0039
2094.00,-0.0039
2092.00,-0.0039
2090.00,-0.0039
2088.00,-0.0039
2086.00,-0.0039
2084.00,-0.0039
2082.00,-0.0039
2080.00,-0.0039
2078.00,-0.0039
2076.00,-0.0039
2074.00,-0.0039
2072.00,-0.0039
2070.00,-0.0039
2068.00,-0.0039
2066.00,-0.0039
2064.00,-0.0039
2062.00,-0.0039
2060.00,-0.0039
2058.00,-0.0039
2056.00,-0.0039
2054.00,-0.0039
2052.00,-0.0039
2050.00,-0.0039
2048.00,-0.0039
2046.00,-0.0039
2044.00,-0.0039
2042.00,-0.0039
2040.00,-0.0039
2038.00,-0.0039
2036.00,-0.0039
2034.00,-0.0039
2032.00,-0.0039
2030.00,-0.0039
2028.00,-0.0039
2026.00,-0.0039
2024.00,-0.0039
2022.00,-0.0039
2020.00,-0.0039
2018.00,-0.0039
2016.00,-0.0039
2014.00,-0.0039
2012.00,-0.0039
2010.00,-0.0039
2008.00,-0.0039
2006.00,-0.0039
2004.00,-0.0039
2002.00,-0.0039
2000.00,-0.0039
1998.00,-0.0039
1996.00,-0.0039
1994.00,-0.0039
1992.00,-0.0039
1990.00,-0.0039
1988.00,-0.0039
1986.00,-0.0039
1984.00,-0.0039
1982.00,-0.0039
1980.00,-0.0039
1978.00,-0.0039
1976.00,-0.0039
1974.00,-0.0039
1972.00,-0.0039
1970.00,-0.0039
1968.00,-0.0039
1966.00,-0.0039
1964.00,-0.0039
1962.00,-0.0039
1960.00,-0.0039
1958.00,-0.0039
1956.00,-0.0039
1954.00,-0.0039
1952.00,-0.0039
1950.00,-0.0039
1948.00,-0.0039
1946.00,-0.0039
1944.00,-0.0039
1942.00,-0.0039
1940.00,-0.0039
1938.00,-0.0039
1936.00,-0.0039
1934.00,-0.0039
1932.00,-0.0039
1930.00,-0.0039
1928.00,-0.0039
1926.00,-0.0039
1924.00,-0.0039
1922.00,-0.0039
1920.00,-0.0038
1918.00,-0.0039
1916.00,-0.0039
1914.00,-0.0039
1912.00,-0.0039
1910.00,-0.0039
1908.00,-0.0039
1906.00,-0.0039
1904.00,-0.0039
1902.00,-0.0039
1900.00,-0.0039
1898.00,-0.0039
1896.00,-0.0039
1894.00,-0.0039
1892.00,-0.0039
1890.00,-0.0039
1888.00,-0.0039
1886.00,-0.0039
1884.00,-0.0039
1882.00,-0.0039
1880.00,-0.0039
1878.00,-0.0039
1876.00,-0.0039
1874.00,-0.0039
1872.00,-0.0039
1870.00,-0.0039
1868.00,-0.0039
1866.00,-0.0039
1864.00,-0.0039
1862.00,-0.0039
1860.00,-0.0039
1858.00,-0.0039
1856.00,-0.0039
1854.00,-0.0039
1852.00,-0.0039
1850.00,-0.0039
1848.00,-0.0039
1846.00,-0.0039
1844.00,-0.0039
1842.00,-0.0039
1840.00,-0.0039
1838.00,-0.0039
1836.00,-0.0039
1834.00,-0.0039
1832.00,-0.0039
1830.00,-0.0039
1828.00,-0.0039
1826.00,-0.0039
1824.00,-0.0039
1822.00,-0.0039
1820.00,-0.0039
1818.00,-0.0039
1816.00,-0.0039
1814.00,-0.0039
1812.00,-0.0039
1810.00,-0.0039
1808.00,-0.0039
1806.00,-0.0039
1804.00,-0.0039
1802.00,-0.0039
1800.00,-0.0039
1798.00,-0.0039
1796.00,-0.0042
1794.00,-0.0048
1792.00,-0.0051
1790.00,-0.0044
1788.00,-0.0039
1786.00,-0.0039
1784.00,-0.0039
1782.00,-0.0039
1780.00,-0.0039
1778.00,-0.0039
1776.00,-0.0039
1774.00,-0.0039
1772.00,-0.0038
1770.00,-0.0038
1768.00,-0.0038
1766.00,-0.0038
1764.00,-0.0038
1762.00,-0.0038
1760.00,-0.0039
1758.00,-0.0039
1756.00,-0.0039
1754.00,-0.0038
1752.00,-0.0038
1750.00,-0.0038
1748.00,-0.0039
1746.00,-0.0039
1744.00,-0.0039
1742.00,-0.0039
1740.00,-0.0039
1738.00,-0.0039
1736.00,-0.0038
1734.00,-0.0038
1732.00,-0.0038
1730.00,-0.0039
1728.00,-0.0039
1726.00,-0.0039
1724.00,-0.0039
1722.00,-0.0039
1720.00,-0.0039
1718.00,-0.0039
1716.00,-0.0039
1714.00,-0.0039
1712.00,-0.0039
1710.00,-0.0039
1708.00,-0.0039
1706.00,-0.0039
1704.00,-0.0039
1702.00,-0.0039
1700.00,-0.0039
1698.00,-0.0039
1696.00,-0.0039
1694.00,-0.0039
1692.00,-0.0039
1690.00,-0.0039
1688.00,-0.0039
1686.00,-0.0039
1684.00,-0.0039
1682.00,-0.0039
1680.00,-0.0039
1678.00,-0.0039
1676.00,-0.0039
1674.00,-0.0039
1672.00,-0.0039
1670.00,-0.0039
1668.00,-0.0039
1666.00,-0.0039
1664.00,-0.0039
1662.00,-0.0040
1660.00,-0.0039
1658.00,-0.0039
1656.00,-0.0040
1654.00,-0.0040
1652.00,-0.0040
1650.00,-0.0039
1648.00,-0.0039
1646.00,-0.0039
1644.00,-0.0039
1642.00,-0.0039
1640.00,-0.0039
1638.00,-0.0039
1636.00,-0.0039
1634.00,-0.0040
1632.00,-0.0040
1630.00,-0.0040
1628.00,-0.0040
1626.00,-0.0040
1624.00,-0.0040
1622.00,-0.0040
1620.00,-0.0040
1618.00,-0.0040
1616.00,-0.0040
1614.00,-0.0040
1612.00,-0.0040
1610.00,-0.0040
1608.00,-0.0040
1606.00,-0.0039
1604.00,-0.0039
1602.00,-0.0039
1600.00,-0.0039
1598.00,-0.0039
1596.00,-0.0039
1594.00,-0.0039
1592.00,-0.0039
1590.00,-0.0039
1588.00,-0.0039
1586.00,-0.0039
1584.00,-0.0039
1582.00,-0.0039
1580.00,-0.0039
1578.00,-0.0039
1576.00,-0.0039
1574.00,-0.0039
1572.00,-0.0039
1570.00,-0.0039
1568.00,-0.0040
1566.00,-0.0039
1564.00,-0.0039
1562.00,-0.0039
1560.00,-0.0039
1558.00,-0.0039
1556.00,-0.0039
1554.00,-0.0039
1552.00,-0.0039
1550.00,-0.0039
1548.00,-0.0039
1546.00,-0.0039
1544.00,-0.0039
1542.00,-0.0039
1540.00,-0.0039
1538.00,-0.0039
1536.00,-0.0039
1534.00,-0.0039
1532.00,-0.0039
1530.00,-0.0039
1528.00,-0.0039
1526.00,-0.0039
1524.00,-0.0038
1522.00,-0.0038
1520.00,-0.0038
1518.00,-0.0038
1516.00,-0.0039
1514.00,-0.0039
1512.00,-0.0038
1510.00,-0.0039
1508.00,-0.0040
1506.00,-0.0039
1504.00,-0.0039
1502.00,-0.0039
1500.00,-0.0040
1498.00,-0.0040
1496.00,-0.0039
1494.00,-0.0039
1492.00,-0.0038
1490.00,-0.0038
1488.00,-0.0038
1486.00,-0.0038
1484.00,-0.0038
1482.00,-0.0039
1480.00,-0.0038
1478.00,-0.0038
1476.00,-0.0038
1474.00,-0.0038
1472.00,-0.0039
1470.00,-0.0039
1468.00,-0.0039
1466.00,-0.0039
1464.00,-0.0039
1462.00,-0.0039
1460.00,-0.0039
1458.00,-0.0038
1456.00,-0.0038
1454.00,-0.0038
1452.00,-0.0039
1450.00,-0.0039
1448.00,-0.0039
1446.00,-0.0039
1444.00,-0.0039
1442.00,-0.0039
1440.00,-0.0038
1438.00,-0.0038
1436.00,-0.0038
1434.00,-0.0038
1432.00,-0.0039
1430.00,-0.0039
1428.00,-0.0039
1426.00,-0.0039
1424.00,-0.0038
1422.00,-0.0038
1420.00,-0.0038
1418.00,-0.0039
1416.00,-0.0039
1414.00,-0.0039
1412.00,-0.0039
1410.00,-0.0039
1408.00,-0.0039
1406.00,-0.0039
1404.00,-0.0039
1402.00,-0.0039
1400.00,-0.0039
1398.00,-0.0039
1396.00,-0.0038
1394.00,-0.0038
1392.00,-0.0038
1390.00,-0.0038
1388.00,-0.0039
1386.00,-0.0039
1384.00,-0.0039
1382.00,-0.0039
1380.00,-0.0039
1378.00,-0.0039
1376.00,-0.0039
1374.00,-0.0039
1372.00,-0.0039
1370.00,-0.0039
1368.00,-0.0039
1366.00,-0.0039
1364.00,-0.0039
1362.00,-0.0039
1360.00,-0.0039
1358.00,-0.0039
1356.00,-0.0039
1354.00,-0.0039
1352.00,-0.0039
1350.00,-0.0039
1348.00,-0.0039
1346.00,-0.0039
1344.00,-0.0039
1342.00,-0.0039
1340.00,-0.0040
1338.00,-0.0040
1336.00,-0.0039
1334.00,-0.0039
1332.00,-0.0039
1330.00,-0.0039
1328.00,-0.0039
1326.00,-0.0039
1324.00,-0.0039
1322.00,-0.0039
1320.00,-0.0039
1318.00,-0.0039
1316.00,-0.0039
1314.00,-0.0040
1312.00,-0.0039
1310.00,-0.0039
1308.00,-0.0039
1306.00,-0.0039
1304.00,-0.0039
1302.00,-0.0039
1300.00,-0.0039
1298.00,-0.0039
1296.00,-0.0039
1294.00,-0.0039
1292.00,-0.0039
1290.00,-0.0039
1288.00,-0.0040
1286.00,-0.0039
1284.00,-0.0039
1282.00,-0.0039
1280.00,-0.0039
1278.00,-0.0039
1276.00,-0.0039
1274.00,-0.0039
1272.00,-0.0039
1270.00,-0.0039
1268.00,-0.0040
1266.00,-0.0040
1264.00,-0.0040
1262.00,-0.0040
1260.00,-0.0041
1258.00,-0.0041
1256.00,-0.0041
1254.00,-0.0041
1252.00,-0.0042
1250.00,-0.0042
1248.00,-0.0042
1246.00,-0.0042
1244.00,-0.0041
1242.00,-0.0041
1240.00,-0.0041
1238.00,-0.0040
1236.00,-0.0040
1234.00,-0.0040
1232.00,-0.0040
1230.00,-0.0039
1228.00,-0.0039
1226.00,-0.0040
1224.00,-0.0040
1222.00,-0.0039
1220.00,-0.0040
1218.00,-0.0040
1216.00,-0.0040
1214.00,-0.0040
1212.00,-0.0040
1210.00,-0.0040
1208.00,-0.0040
1206.00,-0.0040
1204.00,-0.0040
1202.00,-0.0040
1200.00,-0.0040
1198.00,-0.0040
1196.00,-0.0041
1194.00,-0.0041
1192.00,-0.0040
1190.00,-0.0041
1188.00,-0.0041
1186.00,-0.0041
1184.00,-0.0041
1182.00,-0.0041
1180.00,-0.0041
1178.00,-0.0040
1176.00,-0.0040
1174.00,-0.0041
1172.00,-0.0041
1170.00,-0.0041
1168.00,-0.0041
1166.00,-0.0041
1164.00,-0.0041
1162.00,-0.0041
1160.00,-0.0041
1158.00,-0.0041
1156.00,-0.0041
1154.00,-0.0041
1152.00,-0.0041
1150.00,-0.0041
1148.00,-0.0041
1146.00,-0.0041
1144.00,-0.0041
1142.00,-0.0041
1140.00,-0.0041
1138.00,-0.0041
1136.00,-0.0041
1134.00,-0.0041
1132.00,-0.0041
1130.00,-0.0041
1128.00,-0.0041
1126.00,-0.0041
1124.00,-0.0041
1122.00,-0.0042
1120.00,-0.0042
1118.00,-0.0042
1116.00,-0.0042
1114.00,-0.0042
1112.00,-0.0042
1110.00,-0.0041
1108.00,-0.0041
1106.00,-0.0041
1104.00,-0.0041
1102.00,-0.0041
1100.00,-0.0041
1098.00,-0.0041
1096.00,-0.0041
1094.00,-0.0041
1092.00,-0.0041
1090.00,-0.0041
1088.00,-0.0041
1086.00,-0.0041
1084.00,-0.0041
1082.00,-0.0041
1080.00,-0.0041
1078.00,-0.0041
1076.00,-0.0041
1074.00,-0.0041
1072.00,-0.0040
1070.00,-0.0041
1068.00,-0.0041
1066.00,-0.0040
1064.00,-0.0040
1062.00,-0.0040
1060.00,-0.0040
1058.00,-0.0040
1056.00,-0.0040
1054.00,-0.0040
1052.00,-0.0040
1050.00,-0.0040
1048.00,-0.0039
1046.00,-0.0039
1044.00,-0.0039
1042.00,-0.0039
1040.00,-0.0040
1038.00,-0.0040
1036.00,-0.0040
1034.00,-0.0040
1032.00,-0.0040
1030.00,-0.0039
1028.00,-0.0039
1026.00,-0.0039
1024.00,-0.0039
1022.00,-0.0039
1020.00,-0.0039
1018.00,-0.0039
1016.00,-0.0039
1014.00,-0.0039
1012.00,-0.0039
1010.00,-0.0039
1008.00,-0.0039
1006.00,-0.0039
1004.00,-0.0039
1002.00,-0.0039
1000.00,-0.0039
998.00,-0.0039
996.00,-0.0039
994.00,-0.0039
992.00,-0.0039
990.00,-0.0039
988.00,-0.0039
986.00,-0.0039
984.00,-0.0039
982.00,-0.0040
980.00,-0.0040
978.00,-0.0039
976.00,-0.0039
974.00,-0.0040
972.00,-0.0040
970.00,-0.0040
968.00,-0.0040
966.00,-0.0040
964.00,-0.0040
962.00,-0.0040
960.00,-0.0040
958.00,-0.0041
956.00,-0.0041
954.00,-0.0041
952.00,-0.0041
950.00,-0.0041
948.00,-0.0041
946.00,-0.0041
944.00,-0.0042
942.00,-0.0042
940.00,-0.0042
938.00,-0.0042
936.00,-0.0042
934.00,-0.0042
932.00,-0.0042
930.00,-0.0042
928.00,-0.0042
926.00,-0.0042
924.00,-0.0042
922.00,-0.0042
920.00,-0.0042
918.00,-0.0042
916.00,-0.0042
914.00,-0.0042
912.00,-0.0043
910.00,-0.0043
908.00,-0.0042
906.00,-0.0042
904.00,-0.0042
902.00,-0.0042
900.00,-0.0042
898.00,-0.0042
896.00,-0.0042
894.00,-0.0041
892.00,-0.0041
890.00,-0.0042
888.00,-0.0042
886.00,-0.0042
884.00,-0.0042
882.00,-0.0042
880.00,-0.0042
878.00,-0.0042
876.00,-0.0041
874.00,-0.0041
872.00,-0.0041
870.00,-0.0041
868.00,-0.0041
866.00,-0.0041
864.00,-0.0041
862.00,-0.0041
860.00,-0.0041
858.00,-0.0042
856.00,-0.0041
854.00,-0.0041
852.00,-0.0041
850.00,-0.0041
848.00,-0.0041
846.00,-0.0041
844.00,-0.0041
842.00,-0.0041
840.00,-0.0041
838.00,-0.0041
836.00,-0.0041
834.00,-0.0042
832.00,-0.0042
830.00,-0.0042
828.00,-0.0042
826.00,-0.0042
824.00,-0.0042
822.00,-0.0042
820.00,-0.0041
818.00,-0.0041
816.00,-0.0041
814.00,-0.0041
812.00,-0.0041
810.00,-0.0041
808.00,-0.0041
806.00,-0.0041
804.00,-0.0042
802.00,-0.0042
800.00,-0.0042
798.00,-0.0042
796.00,-0.0042
794.00,-0.0042
792.00,-0.0042
790.00,-0.0041
788.00,-0.0041
786.00,-0.0041
784.00,-0.0041
782.00,-0.0041
780.00,-0.0041
778.00,-0.0041
776.00,-0.0041
774.00,-0.0041
772.00,-0.0041
770.00,-0.0041
768.00,-0.0041
766.00,-0.0041
764.00,-0.0041
762.00,-0.0041
760.00,-0.0041
758.00,-0.0041
756.00,-0.0041
754.00,-0.0041
752.00,-0.0041
750.00,-0.0041
748.00,-0.0041
746.00,-0.0041
744.00,-0.0040
742.00,-0.0040
740.00,-0.0041
738.00,-0.0041
736.00,-0.0041
734.00,-0.0041
732.00,-0.0041
730.00,-0.0041
728.00,-0.0041
726.00,-0.0041
724.00,-0.0041
722.00,-0.0041
720.00,-0.0041
718.00,-0.0041
716.00,-0.0041
714.00,-0.0041
712.00,-0.0041
710.00,-0.0041
708.00,-0.0041
706.00,-0.0041
704.00,-0.0041
702.00,-0.0041
700.00,-0.0041
698.00,-0.0042
696.00,-0.0042
694.00,-0.0041
692.00,-0.0041
690.00,-0.0041
688.00,-0.0041
686.00,-0.0041
684.00,-0.0041
682.00,-0.0041
680.00,-0.0042
678.00,-0.0042
676.00,-0.0042
674.00,-0.0042
672.00,-0.0039
670.00,-0.0028
668.00,-0.0007
666.00,-0.0022
664.00,-0.0039
662.00,-0.0043
660.00,-0.0042
658.00,-0.0042
656.00,-0.0042
654.00,-0.0041
652.00,-0.0042
650.00,-0.0041
648.00,-0.0041
646.00,-0.0041
644.00,-0.0042
642.00,-0.0042
640.00,-0.0042
638.00,-0.0042
636.00,-0.0042
634.00,-0.0042
632.00,-0.0043
630.00,-0.0043
628.00,-0.0043
626.00,-0.0042
624.00,-0.0042
622.00,-0.0042
620.00,-0.0043
618.00,-0.0043
616.00,-0.0043
614.00,-0.0043
612.00,-0.0044
610.00,-0.0044
608.00,-0.0044
606.00,-0.0044
604.00,-0.0044
602.00,-0.0044
600.00,-0.0043
598.00,-0.0042
596.00,-0.0042
594.00,-0.0042
592.00,-0.0043
590.00,-0.0043
588.00,-0.0044
586.00,-0.0043
584.00,-0.0043
582.00,-0.0044
580.00,-0.0044
578.00,-0.0044
576.00,-0.0044
574.00,-0.0044
572.00,-0.0044
570.00,-0.0045
568.00,-0.0044
566.00,-0.0044
564.00,-0.0044
562.00,-0.0043
560.00,-0.0042
558.00,-0.0042
556.00,-0.0042
554.00,-0.0043
552.00,-0.0042
550.00,-0.0042
548.00,-0.0042
546.00,-0.0043
544.00,-0.0043
542.00,-0.0043
540.00,-0.0043
538.00,-0.0042
536.00,-0.0042
534.00,-0.0042
532.00,-0.0043
530.00,-0.0043
528.00,-0.0043
526.00,-0.0043
524.00,-0.0043
522.00,-0.0043
520.00,-0.0043
518.00,-0.0043
516.00,-0.0044
514.00,-0.0043
512.00,-0.0044
510.00,-0.0044
508.00,-0.0044
506.00,-0.0045
504.00,-0.0045
502.00,-0.0045
500.00,-0.0045
