Created as New Dataset,Sample 032 By Analyst Date Friday, March 28 2025
cm-1,A
4000.00,-0.0004
3999.00,-0.0004
3998.00,-0.0005
3997.00,-0.0005
3996.00,-0.0005
3995.00,-0.0005
3994.00,-0.0005
3993.00,-0.0005
3992.00,-0.0005
3991.00,-0.0004
3990.00,-0.0004
3989.00,-0.0004
3988.00,-0.0004
3987.00,-0.0004
3986.00,-0.0004
3985.00,-0.0004
3984.00,-0.0004
3983.00,-0.0004
3982.00,-0.0004
3981.00,-0.0004
3980.00,-0.0004
3979.00,-0.0004
3978.00,-0.0004
3977.00,-0.0004
3976.00,-0.0004
3975.00,-0.0004
3974.00,-0.0004
3973.00,-0.0004
3972.00,-0.0004
3971.00,-0.0004
3970.00,-0.0004
3969.00,-0.0004
3968.00,-0.0004
3967.00,-0.0004
3966.00,-0.0004
3965.00,-0.0004
3964.00,-0.0004
3963.00,-0.0004
3962.00,-0.0004
3961.00,-0.0004
3960.00,-0.0004
3959.00,-0.0004
3958.00,-0.0004
3957.00,-0.0004
3956.00,-0.0004
3955.00,-0.0004
3954.00,-0.0004
3953.00,-0.0004
3952.00,-0.0004
3951.00,-0.0004
3950.00,-0.0004
3949.00,-0.0004
3948.00,-0.0004
3947.00,-0.0004
3946.00,-0.0004
3945.00,-0.0004
3944.00,-0.0004
3943.00,-0.0004
3942.00,-0.0004
3941.00,-0.0004
3940.00,-0.0004
3939.00,-0.0004
3938.00,-0.0004
3937.00,-0.0004
3936.00,-0.0004
3935.00,-0.0004
3934.00,-0.0004
3933.00,-0.0004
3932.00,-0.0004
3931.00,-0.0004
3930.00,-0.0004
3929.00,-0.0004
3928.00,-0.0004
3927.00,-0.0004
3926.00,-0.0004
3925.00,-0.0004
3924.00,-0.0004
3923.00,-0.0004
3922.00,-0.0004
3921.00,-0.0004
3920.00,-0.0004
3919.00,-0.0004
3918.00,-0.0004
3917.00,-0.0004
3916.00,-0.0004
3915.00,-0.0004
3914.00,-0.0004
3913.00,-0.0004
3912.00,-0.0004
3911.00,-0.0004
3910.00,-0.0004
3909.00,-0.0004
3908.00,-0.0004
3907.00,-0.0004
3906.00,-0.0004
3905.00,-0.0004
3904.00,-0.0005
3903.00,-0.0005
3902.00,-0.0005
3901.00,-0.0005
3900.00,-0.0005
3899.00,-0.0005
3898.00,-0.0005
3897.00,-0.0004
3896.00,-0.0004
3895.00,-0.0004
3894.00,-0.0004
3893.00,-0.0004
3892.00,-0.0004
3891.00,-0.0004
3890.00,-0.0004
3889.00,-0.0004
3888.00,-0.0004
3887.00,-0.0005
3886.00,-0.0005
3885.00,-0.0005
3884.00,-0.0005
3883.00,-0.0005
3882.00,-0.0004
3881.00,-0.0004
3880.00,-0.0004
3879.00,-0.0004
3878.00,-0.0004
3877.00,-0.0004
3876.00,-0.0004
3875.00,-0.0004
3874.00,-0.0004
3873.00,-0.0004
3872.00,-0.0004
3871.00,-0.0004
3870.00,-0.0004
3869.00,-0.0004
3868.00,-0.0004
3867.00,-0.0004
3866.00,-0.0004
3865.00,-0.0004
3864.00,-0.0004
3863.00,-0.0004
3862.00,-0.0004
3861.00,-0.0004
3860.00,-0.0004
3859.00,-0.0004
3858.00,-0.0004
3857.00,-0.0003
3856.00,-0.0003
3855.00,-0.0004
3854.00,-0.0004
3853.00,-0.0004
3852.00,-0.0004
3851.00,-0.0004
3850.00,-0.0004
3849.00,-0.0004
3848.00,-0.0004
3847.00,-0.0004
3846.00,-0.0004
3845.00,-0.0004
3844.00,-0.0004
3843.00,-0.0004
3842.00,-0.0004
3841.00,-0.0004
3840.00,-0.0004
3839.00,-0.0004
3838.00,-0.0004
3837.00,-0.0004
3836.00,-0.0004
3835.00,-0.0004
3834.00,-0.0004
3833.00,-0.0004
3832.00,-0.0004
3831.00,-0.0004
3830.00,-0.0004
3829.00,-0.0004
3828.00,-0.0004
3827.00,-0.0004
3826.00,-0.0004
3825.00,-0.0004
3824.00,-0.0004
3823.00,-0.0004
3822.00,-0.0004
3821.00,-0.0004
3820.00,-0.0004
3819.00,-0.0004
3818.00,-0.0004
3817.00,-0.0004
3816.00,-0.0004
3815.00,-0.0004
3814.00,-0.0003
3813.00,-0.0003
3812.00,-0.0004
3811.00,-0.0004
3810.00,-0.0004
3809.00,-0.0004
3808.00,-0.0004
3807.00,-0.0004
3806.00,-0.0004
3805.00,-0.0004
3804.00,-0.0004
3803.00,-0.0004
3802.00,-0.0004
3801.00,-0.0004
3800.00,-0.0004
3799.00,-0.0004
3798.00,-0.0004
3797.00,-0.0004
3796.00,-0.0003
3795.00,-0.0003
3794.00,-0.0003
3793.00,-0.0003
3792.00,-0.0003
3791.00,-0.0003
3790.00,-0.0003
3789.00,-0.0003
3788.00,-0.0003
3787.00,-0.0003
3786.00,-0.0003
3785.00,-0.0003
3784.00,-0.0003
3783.00,-0.0003
3782.00,-0.0003
3781.00,-0.0003
3780.00,-0.0003
3779.00,-0.0003
3778.00,-0.0003
3777.00,-0.0003
3776.00,-0.0003
3775.00,-0.0004
3774.00,-0.0004
3773.00,-0.0004
3772.00,-0.0004
3771.00,-0.0004
3770.00,-0.0004
3769.00,-0.0004
3768.00,-0.0003
3767.00,-0.0003
3766.00,-0.0003
3765.00,-0.0003
3764.00,-0.0003
3763.00,-0.0004
3762.00,-0.0004
3761.00,-0.0004
3760.00,-0.0004
3759.00,-0.0004
3758.00,-0.0004
3757.00,-0.0003
3756.00,-0.0003
3755.00,-0.0003
3754.00,-0.0003
3753.00,-0.0003
3752.00,-0.0003
3751.00,-0.0003
3750.00,-0.0004
3749.00,-0.0004
3748.00,-0.0004
3747.00,-0.0004
3746.00,-0.0004
3745.00,-0.0004
3744.00,-0.0004
3743.00,-0.0003
3742.00,-0.0003
3741.00,-0.0004
3740.00,-0.0004
3739.00,-0.0004
3738.00,-0.0004
3737.00,-0.0005
3736.00,-0.0005
3735.00,-0.0005
3734.00,-0.0005
3733.00,-0.0005
3732.00,-0.0005
3731.00,-0.0004
3730.00,-0.0004
3729.00,-0.0004
3728.00,-0.0003
3727.00,-0.0003
3726.00,-0.0003
3725.00,-0.0003
3724.00,-0.0004
3723.00,-0.0004
3722.00,-0.0004
3721.00,-0.0004
3720.00,-0.0003
3719.00,-0.0003
3718.00,-0.0004
3717.00,-0.0004
3716.00,-0.0004
3715.00,-0.0003
3714.00,-0.0003
3713.00,-0.0003
3712.00,-0.0003
3711.00,-0.0003
3710.00,-0.0003
3709.00,-0.0003
3708.00,-0.0004
3707.00,-0.0004
3706.00,-0.0004
3705.00,-0.0004
3704.00,-0.0004
3703.00,-0.0004
3702.00,-0.0004
3701.00,-0.0004
3700.00,-0.0004
3699.00,-0.0003
3698.00,-0.0003
3697.00,-0.0003
3696.00,-0.0003
3695.00,-0.0003
3694.00,-0.0004
3693.00,-0.0004
3692.00,-0.0004
3691.00,-0.0004
3690.00,-0.0004
3689.00,-0.0004
3688.00,-0.0004
3687.00,-0.0004
3686.00,-0.0003
3685.00,-0.0003
3684.00,-0.0003
3683.00,-0.0003
3682.00,-0.0003
3681.00,-0.0003
3680.00,-0.0003
3679.00,-0.0003
3678.00,-0.0003
3677.00,-0.0004
3676.00,-0.0004
3675.00,-0.0003
3674.00,-0.0003
3673.00,-0.0003
3672.00,-0.0004
3671.00,-0.0004
3670.00,-0.0004
3669.00,-0.0003
3668.00,-0.0003
3667.00,-0.0003
3666.00,-0.0003
3665.00,-0.0003
3664.00,-0.0003
3663.00,-0.0003
3662.00,-0.0003
3661.00,-0.0003
3660.00,-0.0003
3659.00,-0.0003
3658.00,-0.0004
3657.00,-0.0004
3656.00,-0.0003
3655.00,-0.0003
3654.00,-0.0003
3653.00,-0.0004
3652.00,-0.0004
3651.00,-0.0004
3650.00,-0.0004
3649.00,-0.0004
3648.00,-0.0004
3647.00,-0.0004
3646.00,-0.0004
3645.00,-0.0004
3644.00,-0.0004
3643.00,-0.0003
3642.00,-0.0003
3641.00,-0.0003
3640.00,-0.0003
3639.00,-0.0003
3638.00,-0.0003
3637.00,-0.0003
3636.00,-0.0004
3635.00,-0.0004
3634.00,-0.0004
3633.00,-0.0004
3632.00,-0.0004
3631.00,-0.0004
3630.00,-0.0004
3629.00,-0.0004
3628.00,-0.0004
3627.00,-0.0004
3626.00,-0.0004
3625.00,-0.0004
3624.00,-0.0004
3623.00,-0.0004
3622.00,-0.0004
3621.00,-0.0004
3620.00,-0.0004
3619.00,-0.0004
3618.00,-0.0004
3617.00,-0.0004
3616.00,-0.0004
3615.00,-0.0004
3614.00,-0.0004
3613.00,-0.0004
3612.00,-0.0004
3611.00,-0.0004
3610.00,-0.0004
3609.00,-0.0004
3608.00,-0.0004
3607.00,-0.0004
3606.00,-0.0004
3605.00,-0.0004
3604.00,-0.0004
3603.00,-0.0004
3602.00,-0.0003
3601.00,-0.0003
3600.00,-0.0003
3599.00,-0.0004
3598.00,-0.0004
3597.00,-0.0004
3596.00,-0.0004
3595.00,-0.0004
3594.00,-0.0004
3593.00,-0.0004
3592.00,-0.0004
3591.00,-0.0004
3590.00,-0.0004
3589.00,-0.0004
3588.00,-0.0004
3587.00,-0.0004
3586.00,-0.0004
3585.00,-0.0004
3584.00,-0.0004
3583.00,-0.0004
3582.00,-0.0003
3581.00,-0.0003
3580.00,-0.0003
3579.00,-0.0003
3578.00,-0.0004
3577.00,-0.0004
3576.00,-0.0004
3575.00,-0.0004
3574.00,-0.0004
3573.00,-0.0004
3572.00,-0.0004
3571.00,-0.0004
3570.00,-0.0004
3569.00,-0.0004
3568.00,-0.0004
3567.00,-0.0004
3566.00,-0.0004
3565.00,-0.0004
3564.00,-0.0004
3563.00,-0.0003
3562.00,-0.0003
3561.00,-0.0003
3560.00,-0.0003
3559.00,-0.0003
3558.00,-0.0004
3557.00,-0.0004
3556.00,-0.0004
3555.00,-0.0004
3554.00,-0.0004
3553.00,-0.0004
3552.00,-0.0004
3551.00,-0.0004
3550.00,-0.0004
3549.00,-0.0004
3548.00,-0.0004
3547.00,-0.0004
3546.00,-0.0004
3545.00,-0.0004
3544.00,-0.0004
3543.00,-0.0004
3542.00,-0.0004
3541.00,-0.0004
3540.00,-0.0004
3539.00,-0.0004
3538.00,-0.0004
3537.00,-0.0004
3536.00,-0.0004
3535.00,-0.0004
3534.00,-0.0004
3533.00,-0.0004
3532.00,-0.0004
3531.00,-0.0004
3530.00,-0.0003
3529.00,-0.0003
3528.00,-0.0004
3527.00,-0.0004
3526.00,-0.0004
3525.00,-0.0004
3524.00,-0.0004
3523.00,-0.0004
3522.00,-0.0004
3521.00,-0.0004
3520.00,-0.0004
3519.00,-0.0004
3518.00,-0.0004
3517.00,-0.0004
3516.00,-0.0004
3515.00,-0.0004
3514.00,-0.0004
3513.00,-0.0004
3512.00,-0.0004
3511.00,-0.0004
3510.00,-0.0004
3509.00,-0.0004
3508.00,-0.0004
3507.00,-0.0004
3506.00,-0.0004
3505.00,-0.0004
3504.00,-0.0004
3503.00,-0.0004
3502.00,-0.0004
3501.00,-0.0004
3500.00,-0.0004
3499.00,-0.0004
3498.00,-0.0004
3497.00,-0.0004
3496.00,-0.0004
3495.00,-0.0004
3494.00,-0.0004
3493.00,-0.0004
3492.00,-0.0004
3491.00,-0.0004
3490.00,-0.0004
3489.00,-0.0004
3488.00,-0.0004
3487.00,-0.0004
3486.00,-0.0004
3485.00,-0.0004
3484.00,-0.0004
3483.00,-0.0004
3482.00,-0.0004
3481.00,-0.0004
3480.00,-0.0004
3479.00,-0.0004
3478.00,-0.0004
3477.00,-0.0004
3476.00,-0.0004
3475.00,-0.0004
3474.00,-0.0004
3473.00,-0.0004
3472.00,-0.0004
3471.00,-0.0004
3470.00,-0.0004
3469.00,-0.0004
3468.00,-0.0005
3467.00,-0.0005
3466.00,-0.0005
3465.00,-0.0005
3464.00,-0.0005
3463.00,-0.0004
3462.00,-0.0004
3461.00,-0.0004
3460.00,-0.0004
3459.00,-0.0004
3458.00,-0.0004
3457.00,-0.0004
3456.00,-0.0004
3455.00,-0.0004
3454.00,-0.0004
3453.00,-0.0004
3452.00,-0.0004
3451.00,-0.0004
3450.00,-0.0004
3449.00,-0.0004
3448.00,-0.0004
3447.00,-0.0004
3446.00,-0.0005
3445.00,-0.0004
3444.00,-0.0004
3443.00,-0.0004
3442.00,-0.0004
3441.00,-0.0004
3440.00,-0.0004
3439.00,-0.0004
3438.00,-0.0004
3437.00,-0.0004
3436.00,-0.0004
3435.00,-0.0004
3434.00,-0.0004
3433.00,-0.0004
3432.00,-0.0004
3431.00,-0.0004
3430.00,-0.0004
3429.00,-0.0004
3428.00,-0.0004
3427.00,-0.0004
3426.00,-0.0004
3425.00,-0.0004
3424.00,-0.0004
3423.00,-0.0004
3422.00,-0.0004
3421.00,-0.0004
3420.00,-0.0004
3419.00,-0.0004
3418.00,-0.0004
3417.00,-0.0004
3416.00,-0.0004
3415.00,-0.0004
3414.00,-0.0004
3413.00,-0.0004
3412.00,-0.0004
3411.00,-0.0004
3410.00,-0.0004
3409.00,-0.0004
3408.00,-0.0004
3407.00,-0.0004
3406.00,-0.0004
3405.00,-0.0004
3404.00,-0.0004
3403.00,-0.0004
3402.00,-0.0004
3401.00,-0.0004
3400.00,-0.0004
3399.00,-0.0004
3398.00,-0.0004
3397.00,-0.0004
3396.00,-0.0004
3395.00,-0.0004
3394.00,-0.0004
3393.00,-0.0004
3392.00,-0.0004
3391.00,-0.0004
3390.00,-0.0004
3389.00,-0.0004
3388.00,-0.0004
3387.00,-0.0004
3386.00,-0.0004
3385.00,-0.0004
3384.00,-0.0004
3383.00,-0.0004
3382.00,-0.0004
3381.00,-0.0004
3380.00,-0.0004
3379.00,-0.0004
3378.00,-0.0004
3377.00,-0.0004
3376.00,-0.0004
3375.00,-0.0004
3374.00,-0.0004
3373.00,-0.0004
3372.00,-0.0004
3371.00,-0.0004
3370.00,-0.0004
3369.00,-0.0004
3368.00,-0.0004
3367.00,-0.0004
3366.00,-0.0004
3365.00,-0.0004
3364.00,-0.0004
3363.00,-0.0004
3362.00,-0.0004
3361.00,-0.0004
3360.00,-0.0004
3359.00,-0.0004
3358.00,-0.0004
3357.00,-0.0004
3356.00,-0.0004
3355.00,-0.0004
3354.00,-0.0004
3353.00,-0.0004
3352.00,-0.0004
3351.00,-0.0004
3350.00,-0.0004
3349.00,-0.0004
3348.00,-0.0004
3347.00,-0.0004
3346.00,-0.0004
3345.00,-0.0004
3344.00,-0.0004
3343.00,-0.0004
3342.00,-0.0004
3341.00,-0.0004
3340.00,-0.0004
3339.00,-0.0004
3338.00,-0.0004
3337.00,-0.0004
3336.00,-0.0004
3335.00,-0.0004
3334.00,-0.0004
3333.00,-0.0004
3332.00,-0.0004
3331.00,-0.0004
3330.00,-0.0004
3329.00,-0.0004
3328.00,-0.0004
3327.00,-0.0004
3326.00,-0.0004
3325.00,-0.0004
3324.00,-0.0004
3323.00,-0.0004
3322.00,-0.0004
3321.00,-0.0004
3320.00,-0.0004
3319.00,-0.0004
3318.00,-0.0004
3317.00,-0.0004
3316.00,-0.0004
3315.00,-0.0004
3314.00,-0.0004
3313.00,-0.0004
3312.00,-0.0004
3311.00,-0.0004
3310.00,-0.0004
3309.00,-0.0004
3308.00,-0.0004
3307.00,-0.0004
3306.00,-0.0004
3305.00,-0.0004
3304.00,-0.0004
3303.00,-0.0004
3302.00,-0.0004
3301.00,-0.0004
3300.00,-0.0004
3299.00,-0.0004
3298.00,-0.0004
3297.00,-0.0004
3296.00,-0.0004
3295.00,-0.0004
3294.00,-0.0004
3293.00,-0.0004
3292.00,-0.0004
3291.00,-0.0004
3290.00,-0.0004
3289.00,-0.0004
3288.00,-0.0004
3287.00,-0.0004
3286.00,-0.0003
3285.00,-0.0003
3284.00,-0.0003
3283.00,-0.0003
3282.00,-0.0004
3281.00,-0.0003
3280.00,-0.0003
3279.00,-0.0003
3278.00,-0.0003
3277.00,-0.0003
3276.00,-0.0003
3275.00,-0.0003
3274.00,-0.0003
3273.00,-0.0003
3272.00,-0.0003
3271.00,-0.0003
3270.00,-0.0003
3269.00,-0.0003
3268.00,-0.0003
3267.00,-0.0003
3266.00,-0.0003
3265.00,-0.0003
3264.00,-0.0003
3263.00,-0.0003
3262.00,-0.0003
3261.00,-0.0003
3260.00,-0.0003
3259.00,-0.0004
3258.00,-0.0004
3257.00,-0.0003
3256.00,-0.0003
3255.00,-0.0003
3254.00,-0.0003
3253.00,-0.0003
3252.00,-0.0004
3251.00,-0.0003
3250.00,-0.0003
3249.00,-0.0003
3248.00,-0.0003
3247.00,-0.0003
3246.00,-0.0003
3245.00,-0.0004
3244.00,-0.0004
3243.00,-0.0003
3242.00,-0.0003
3241.00,-0.0003
3240.00,-0.0003
3239.00,-0.0003
3238.00,-0.0003
3237.00,-0.0003
3236.00,-0.0003
3235.00,-0.0004
3234.00,-0.0004
3233.00,-0.0004
3232.00,-0.0004
3231.00,-0.0003
3230.00,-0.0003
3229.00,-0.0003
3228.00,-0.0003
3227.00,-0.0003
3226.00,-0.0003
3225.00,-0.0004
3224.00,-0.0003
3223.00,-0.0003
3222.00,-0.0003
3221.00,-0.0003
3220.00,-0.0003
3219.00,-0.0003
3218.00,-0.0003
3217.00,-0.0003
3216.00,-0.0003
3215.00,-0.0003
3214.00,-0.0003
3213.00,-0.0003
3212.00,-0.0003
3211.00,-0.0003
3210.00,-0.0003
3209.00,-0.0003
3208.00,-0.0003
3207.00,-0.0003
3206.00,-0.0003
3205.00,-0.0003
3204.00,-0.0003
3203.00,-0.0003
3202.00,-0.0003
3201.00,-0.0003
3200.00,-0.0003
3199.00,-0.0003
3198.00,-0.0003
3197.00,-0.0003
3196.00,-0.0003
3195.00,-0.0003
3194.00,-0.0003
3193.00,-0.0003
3192.00,-0.0003
3191.00,-0.0003
3190.00,-0.0003
3189.00,-0.0003
3188.00,-0.0003
3187.00,-0.0003
3186.00,-0.0003
3185.00,-0.0003
3184.00,-0.0003
3183.00,-0.0003
3182.00,-0.0003
3181.00,-0.0003
3180.00,-0.0003
3179.00,-0.0003
3178.00,-0.0003
3177.00,-0.0003
3176.00,-0.0003
3175.00,-0.0003
3174.00,-0.0003
3173.00,-0.0003
3172.00,-0.0003
3171.00,-0.0003
3170.00,-0.0003
3169.00,-0.0003
3168.00,-0.0003
3167.00,-0.0003
3166.00,-0.0003
3165.00,-0.0003
3164.00,-0.0003
3163.00,-0.0003
3162.00,-0.0003
3161.00,-0.0003
3160.00,-0.0003
3159.00,-0.0003
3158.00,-0.0003
3157.00,-0.0003
3156.00,-0.0003
3155.00,-0.0003
3154.00,-0.0003
3153.00,-0.0003
3152.00,-0.0003
3151.00,-0.0003
3150.00,-0.0003
3149.00,-0.0003
3148.00,-0.0003
3147.00,-0.0003
3146.00,-0.0003
3145.00,-0.0003
3144.00,-0.0003
3143.00,-0.0003
3142.00,-0.0003
3141.00,-0.0003
3140.00,-0.0003
3139.00,-0.0003
3138.00,-0.0003
3137.00,-0.0003
3136.00,-0.0003
3135.00,-0.0003
3134.00,-0.0003
3133.00,-0.0003
3132.00,-0.0003
3131.00,-0.0003
3130.00,-0.0003
3129.00,-0.0002
3128.00,-0.0002
3127.00,-0.0003
3126.00,-0.0003
3125.00,-0.0003
3124.00,-0.0003
3123.00,-0.0003
3122.00,-0.0003
3121.00,-0.0003
3120.00,-0.0003
3119.00,-0.0003
3118.00,-0.0003
3117.00,-0.0003
3116.00,-0.0003
3115.00,-0.0003
3114.00,-0.0003
3113.00,-0.0003
3112.00,-0.0003
3111.00,-0.0003
3110.00,-0.0003
3109.00,-0.0003
3108.00,-0.0003
3107.00,-0.0003
3106.00,-0.0003
3105.00,-0.0003
3104.00,-0.0003
3103.00,-0.0003
3102.00,-0.0003
3101.00,-0.0003
3100.00,-0.0003
3099.00,-0.0003
3098.00,-0.0003
3097.00,-0.0003
3096.00,-0.0003
3095.00,-0.0003
3094.00,-0.0003
3093.00,-0.0003
3092.00,-0.0003
3091.00,-0.0003
3090.00,-0.0003
3089.00,-0.0003
3088.00,-0.0003
3087.00,-0.0002
3086.00,-0.0002
3085.00,-0.0002
3084.00,-0.0003
3083.00,-0.0003
3082.00,-0.0003
3081.00,-0.0003
3080.00,-0.0003
3079.00,-0.0003
3078.00,-0.0003
3077.00,-0.0003
3076.00,-0.0003
3075.00,-0.0003
3074.00,-0.0003
3073.00,-0.0002
3072.00,-0.0003
3071.00,-0.0003
3070.00,-0.0003
3069.00,-0.0003
3068.00,-0.0003
3067.00,-0.0002
3066.00,-0.0002
3065.00,-0.0002
3064.00,-0.0003
3063.00,-0.0003
3062.00,-0.0003
3061.00,-0.0002
3060.00,-0.0002
3059.00,-0.0003
3058.00,-0.0003
3057.00,-0.0003
3056.00,-0.0003
3055.00,-0.0003
3054.00,-0.0003
3053.00,-0.0003
3052.00,-0.0003
3051.00,-0.0003
3050.00,-0.0003
3049.00,-0.0003
3048.00,-0.0003
3047.00,-0.0003
3046.00,-0.0003
3045.00,-0.0003
3044.00,-0.0003
3043.00,-0.0003
3042.00,-0.0003
3041.00,-0.0003
3040.00,-0.0003
3039.00,-0.0003
3038.00,-0.0003
3037.00,-0.0003
3036.00,-0.0003
3035.00,-0.0003
3034.00,-0.0003
3033.00,-0.0003
3032.00,-0.0003
3031.00,-0.0003
3030.00,-0.0003
3029.00,-0.0002
3028.00,-0.0002
3027.00,-0.0002
3026.00,-0.0002
3025.00,-0.0002
3024.00,-0.0002
3023.00,-0.0002
3022.00,-0.0002
3021.00,-0.0002
3020.00,-0.0002
3019.00,-0.0002
3018.00,-0.0003
3017.00,-0.0003
3016.00,-0.0003
3015.00,-0.0003
3014.00,-0.0003
3013.00,-0.0003
3012.00,-0.0003
3011.00,-0.0003
3010.00,-0.0003
3009.00,-0.0003
3008.00,-0.0003
3007.00,-0.0003
3006.00,-0.0003
3005.00,-0.0003
3004.00,-0.0003
3003.00,-0.0003
3002.00,-0.0003
3001.00,-0.0003
3000.00,-0.0003
2999.00,-0.0003
2998.00,-0.0002
2997.00,-0.0002
2996.00,-0.0002
2995.00,-0.0002
2994.00,-0.0002
2993.00,-0.0002
2992.00,-0.0002
2991.00,-0.0002
2990.00,-0.0002
2989.00,-0.0002
2988.00,-0.0003
2987.00,-0.0003
2986.00,-0.0003
2985.00,-0.0002
2984.00,-0.0002
2983.00,-0.0002
2982.00,-0.0002
2981.00,-0.0002
2980.00,-0.0002
2979.00,-0.0002
2978.00,-0.0002
2977.00,-0.0002
2976.00,-0.0002
2975.00,-0.0002
2974.00,-0.0002
2973.00,-0.0002
2972.00,-0.0002
2971.00,-0.0002
2970.00,-0.0003
2969.00,-0.0003
2968.00,-0.0003
2967.00,-0.0003
2966.00,-0.0003
2965.00,-0.0003
2964.00,-0.0003
2963.00,-0.0003
2962.00,-0.0003
2961.00,-0.0002
2960.00,-0.0002
2959.00,-0.0002
2958.00,-0.0002
2957.00,-0.0002
2956.00,-0.0002
2955.00,-0.0002
2954.00,-0.0002
2953.00,-0.0003
2952.00,-0.0003
2951.00,-0.0003
2950.00,-0.0003
2949.00,-0.0003
2948.00,-0.0003
2947.00,-0.0003
2946.00,-0.0003
2945.00,-0.0003
2944.00,-0.0003
2943.00,-0.0003
2942.00,-0.0003
2941.00,-0.0003
2940.00,-0.0003
2939.00,-0.0003
2938.00,-0.0003
2937.00,-0.0003
2936.00,-0.0003
2935.00,-0.0003
2934.00,-0.0003
2933.00,-0.0003
2932.00,-0.0003
2931.00,-0.0003
2930.00,-0.0003
2929.00,-0.0003
2928.00,-0.0003
2927.00,-0.0003
2926.00,-0.0002
2925.00,-0.0002
2924.00,-0.0002
2923.00,-0.0002
2922.00,-0.0002
2921.00,-0.0002
2920.00,-0.0002
2919.00,-0.0002
2918.00,-0.0002
2917.00,-0.0002
2916.00,-0.0002
2915.00,-0.0002
2914.00,-0.0002
2913.00,-0.0002
2912.00,-0.0002
2911.00,-0.0002
2910.00,-0.0002
2909.00,-0.0002
2908.00,-0.0002
2907.00,-0.0002
2906.00,-0.0003
2905.00,-0.0003
2904.00,-0.0003
2903.00,-0.0003
2902.00,-0.0003
2901.00,-0.0003
2900.00,-0.0002
2899.00,-0.0002
2898.00,-0.0002
2897.00,-0.0002
2896.00,-0.0002
2895.00,-0.0002
2894.00,-0.0002
2893.00,-0.0002
2892.00,-0.0002
2891.00,-0.0002
2890.00,-0.0002
2889.00,-0.0002
2888.00,-0.0002
2887.00,-0.0002
2886.00,-0.0002
2885.00,-0.0002
2884.00,-0.0002
2883.00,-0.0002
2882.00,-0.0002
2881.00,-0.0002
2880.00,-0.0002
2879.00,-0.0002
2878.00,-0.0002
2877.00,-0.0002
2876.00,-0.0002
2875.00,-0.0002
2874.00,-0.0002
2873.00,-0.0002
2872.00,-0.0002
2871.00,-0.0002
2870.00,-0.0002
2869.00,-0.0002
2868.00,-0.0002
2867.00,-0.0002
2866.00,-0.0002
2865.00,-0.0002
2864.00,-0.0002
2863.00,-0.0002
2862.00,-0.0002
2861.00,-0.0002
2860.00,-0.0002
2859.00,-0.0002
2858.00,-0.0003
2857.00,-0.0003
2856.00,-0.0003
2855.00,-0.0002
2854.00,-0.0002
2853.00,-0.0002
2852.00,-0.0002
2851.00,-0.0002
2850.00,-0.0003
2849.00,-0.0003
2848.00,-0.0003
2847.00,-0.0002
2846.00,-0.0002
2845.00,-0.0002
2844.00,-0.0002
2843.00,-0.0002
2842.00,-0.0002
2841.00,-0.0002
2840.00,-0.0002
2839.00,-0.0002
2838.00,-0.0002
2837.00,-0.0002
2836.00,-0.0002
2835.00,-0.0002
2834.00,-0.0002
2833.00,-0.0002
2832.00,-0.0002
2831.00,-0.0002
2830.00,-0.0002
2829.00,-0.0002
2828.00,-0.0002
2827.00,-0.0002
2826.00,-0.0002
2825.00,-0.0002
2824.00,-0.0002
2823.00,-0.0002
2822.00,-0.0002
2821.00,-0.0002
2820.00,-0.0002
2819.00,-0.0002
2818.00,-0.0002
2817.00,-0.0002
2816.00,-0.0002
2815.00,-0.0002
2814.00,-0.0002
2813.00,-0.0002
2812.00,-0.0002
2811.00,-0.0002
2810.00,-0.0002
2809.00,-0.0002
2808.00,-0.0002
2807.00,-0.0003
2806.00,-0.0003
2805.00,-0.0003
2804.00,-0.0002
2803.00,-0.0002
2802.00,-0.0002
2801.00,-0.0002
2800.00,-0.0002
2799.00,-0.0002
2798.00,-0.0002
2797.00,-0.0002
2796.00,-0.0002
2795.00,-0.0002
2794.00,-0.0002
2793.00,-0.0002
2792.00,-0.0002
2791.00,-0.0002
2790.00,-0.0002
2789.00,-0.0002
2788.00,-0.0002
2787.00,-0.0002
2786.00,-0.0002
2785.00,-0.0002
2784.00,-0.0002
2783.00,-0.0002
2782.00,-0.0002
2781.00,-0.0002
2780.00,-0.0002
2779.00,-0.0002
2778.00,-0.0002
2777.00,-0.0002
2776.00,-0.0002
2775.00,-0.0002
2774.00,-0.0002
2773.00,-0.0002
2772.00,-0.0002
2771.00,-0.0002
2770.00,-0.0002
2769.00,-0.0002
2768.00,-0.0002
2767.00,-0.0002
2766.00,-0.0002
2765.00,-0.0002
2764.00,-0.0002
2763.00,-0.0002
2762.00,-0.0002
2761.00,-0.0002
2760.00,-0.0002
2759.00,-0.0002
2758.00,-0.0002
2757.00,-0.0002
2756.00,-0.0002
2755.00,-0.0002
2754.00,-0.0002
2753.00,-0.0002
2752.00,-0.0002
2751.00,-0.0003
2750.00,-0.0003
2749.00,-0.0002
2748.00,-0.0002
2747.00,-0.0002
2746.00,-0.0002
2745.00,-0.0002
2744.00,-0.0002
2743.00,-0.0002
2742.00,-0.0002
2741.00,-0.0002
2740.00,-0.0002
2739.00,-0.0002
2738.00,-0.0002
2737.00,-0.0002
2736.00,-0.0002
2735.00,-0.0002
2734.00,-0.0002
2733.00,-0.0002
2732.00,-0.0002
2731.00,-0.0002
2730.00,-0.0002
2729.00,-0.0002
2728.00,-0.0002
2727.00,-0.0002
2726.00,-0.0002
2725.00,-0.0002
2724.00,-0.0003
2723.00,-0.0003
2722.00,-0.0003
2721.00,-0.0002
2720.00,-0.0002
2719.00,-0.0002
2718.00,-0.0002
2717.00,-0.0002
2716.00,-0.0002
2715.00,-0.0002
2714.00,-0.0002
2713.00,-0.0002
2712.00,-0.0002
2711.00,-0.0002
2710.00,-0.0002
2709.00,-0.0002
2708.00,-0.0002
2707.00,-0.0002
2706.00,-0.0002
2705.00,-0.0002
2704.00,-0.0002
2703.00,-0.0002
2702.00,-0.0002
2701.00,-0.0002
2700.00,-0.0002
2699.00,-0.0002
2698.00,-0.0002
2697.00,-0.0002
2696.00,-0.0002
2695.00,-0.0002
2694.00,-0.0002
2693.00,-0.0002
2692.00,-0.0002
2691.00,-0.0002
2690.00,-0.0002
2689.00,-0.0002
2688.00,-0.0002
2687.00,-0.0002
2686.00,-0.0002
2685.00,-0.0002
2684.00,-0.0002
2683.00,-0.0002
2682.00,-0.0002
2681.00,-0.0002
2680.00,-0.0002
2679.00,-0.0002
2678.00,-0.0003
2677.00,-0.0002
2676.00,-0.0002
2675.00,-0.0002
2674.00,-0.0002
2673.00,-0.0002
2672.00,-0.0002
2671.00,-0.0002
2670.00,-0.0002
2669.00,-0.0002
2668.00,-0.0002
2667.00,-0.0002
2666.00,-0.0002
2665.00,-0.0002
2664.00,-0.0002
2663.00,-0.0002
2662.00,-0.0002
2661.00,-0.0002
2660.00,-0.0002
2659.00,-0.0002
2658.00,-0.0002
2657.00,-0.0002
2656.00,-0.0002
2655.00,-0.0002
2654.00,-0.0002
2653.00,-0.0002
2652.00,-0.0002
2651.00,-0.0002
2650.00,-0.0002
2649.00,-0.0002
2648.00,-0.0002
2647.00,-0.0002
2646.00,-0.0002
2645.00,-0.0002
2644.00,-0.0002
2643.00,-0.0002
2642.00,-0.0002
2641.00,-0.0002
2640.00,-0.0002
2639.00,-0.0002
2638.00,-0.0002
2637.00,-0.0002
2636.00,-0.0002
2635.00,-0.0002
2634.00,-0.0002
2633.00,-0.0002
2632.00,-0.0002
2631.00,-0.0002
2630.00,-0.0002
2629.00,-0.0002
2628.00,-0.0002
2627.00,-0.0002
2626.00,-0.0002
2625.00,-0.0002
2624.00,-0.0002
2623.00,-0.0002
2622.00,-0.0002
2621.00,-0.0002
2620.00,-0.0002
2619.00,-0.0002
2618.00,-0.0002
2617.00,-0.0002
2616.00,-0.0002
2615.00,-0.0002
2614.00,-0.0002
2613.00,-0.0002
2612.00,-0.0002
2611.00,-0.0002
2610.00,-0.0002
2609.00,-0.0002
2608.00,-0.0002
2607.00,-0.0002
2606.00,-0.0002
2605.00,-0.0002
2604.00,-0.0002
2603.00,-0.0002
2602.00,-0.0002
2601.00,-0.0002
2600.00,-0.0002
2599.00,-0.0002
2598.00,-0.0002
2597.00,-0.0002
2596.00,-0.0002
2595.00,-0.0002
2594.00,-0.0002
2593.00,-0.0002
2592.00,-0.0002
2591.00,-0.0002
2590.00,-0.0002
2589.00,-0.0002
2588.00,-0.0002
2587.00,-0.0002
2586.00,-0.0002
2585.00,-0.0002
2584.00,-0.0002
2583.00,-0.0002
2582.00,-0.0002
2581.00,-0.0002
2580.00,-0.0002
2579.00,-0.0002
2578.00,-0.0002
2577.00,-0.0002
2576.00,-0.0002
2575.00,-0.0002
2574.00,-0.0002
2573.00,-0.0002
2572.00,-0.0002
2571.00,-0.0002
2570.00,-0.0002
2569.00,-0.0002
2568.00,-0.0002
2567.00,-0.0002
2566.00,-0.0002
2565.00,-0.0002
2564.00,-0.0002
2563.00,-0.0002
2562.00,-0.0002
2561.00,-0.0002
2560.00,-0.0002
2559.00,-0.0002
2558.00,-0.0002
2557.00,-0.0002
2556.00,-0.0002
2555.00,-0.0002
2554.00,-0.0002
2553.00,-0.0002
2552.00,-0.0002
2551.00,-0.0002
2550.00,-0.0002
2549.00,-0.0002
2548.00,-0.0002
2547.00,-0.0002
2546.00,-0.0002
2545.00,-0.0002
2544.00,-0.0002
2543.00,-0.0002
2542.00,-0.0002
2541.00,-0.0002
2540.00,-0.0002
2539.00,-0.0002
2538.00,-0.0002
2537.00,-0.0002
2536.00,-0.0002
2535.00,-0.0002
2534.00,-0.0002
2533.00,-0.0002
2532.00,-0.0002
2531.00,-0.0002
2530.00,-0.0002
2529.00,-0.0002
2528.00,-0.0002
2527.00,-0.0002
2526.00,-0.0002
2525.00,-0.0002
2524.00,-0.0002
2523.00,-0.0002
2522.00,-0.0002
2521.00,-0.0002
2520.00,-0.0002
2519.00,-0.0002
2518.00,-0.0002
2517.00,-0.0002
2516.00,-0.0002
2515.00,-0.0002
2514.00,-0.0002
2513.00,-0.0002
2512.00,-0.0002
2511.00,-0.0002
2510.00,-0.0002
2509.00,-0.0002
2508.00,-0.0002
2507.00,-0.0002
2506.00,-0.0002
2505.00,-0.0002
2504.00,-0.0002
2503.00,-0.0002
2502.00,-0.0002
2501.00,-0.0002
2500.00,-0.0002
2499.00,-0.0002
2498.00,-0.0002
2497.00,-0.0002
2496.00,-0.0002
2495.00,-0.0002
2494.00,-0.0002
2493.00,-0.0002
2492.00,-0.0002
2491.00,-0.0002
2490.00,-0.0002
2489.00,-0.0002
2488.00,-0.0002
2487.00,-0.0002
2486.00,-0.0002
2485.00,-0.0002
2484.00,-0.0002
2483.00,-0.0002
2482.00,-0.0002
2481.00,-0.0002
2480.00,-0.0002
2479.00,-0.0002
2478.00,-0.0002
2477.00,-0.0002
2476.00,-0.0002
2475.00,-0.0002
2474.00,-0.0002
2473.00,-0.0002
2472.00,-0.0002
2471.00,-0.0002
2470.00,-0.0002
2469.00,-0.0002
2468.00,-0.0002
2467.00,-0.0002
2466.00,-0.0002
2465.00,-0.0002
2464.00,-0.0002
2463.00,-0.0002
2462.00,-0.0002
2461.00,-0.0002
2460.00,-0.0002
2459.00,-0.0002
2458.00,-0.0002
2457.00,-0.0002
2456.00,-0.0002
2455.00,-0.0002
2454.00,-0.0002
2453.00,-0.0002
2452.00,-0.0002
2451.00,-0.0002
2450.00,-0.0002
2449.00,-0.0002
2448.00,-0.0002
2447.00,-0.0002
2446.00,-0.0002
2445.00,-0.0002
2444.00,-0.0002
2443.00,-0.0002
2442.00,-0.0002
2441.00,-0.0002
2440.00,-0.0002
2439.00,-0.0002
2438.00,-0.0002
2437.00,-0.0002
2436.00,-0.0002
2435.00,-0.0002
2434.00,-0.0002
2433.00,-0.0002
2432.00,-0.0002
2431.00,-0.0002
2430.00,-0.0002
2429.00,-0.0002
2428.00,-0.0002
2427.00,-0.0002
2426.00,-0.0002
2425.00,-0.0002
2424.00,-0.0002
2423.00,-0.0002
2422.00,-0.0002
2421.00,-0.0002
2420.00,-0.0002
2419.00,-0.0002
2418.00,-0.0002
2417.00,-0.0002
2416.00,-0.0002
2415.00,-0.0002
2414.00,-0.0002
2413.00,-0.0002
2412.00,-0.0002
2411.00,-0.0002
2410.00,-0.0002
2409.00,-0.0002
2408.00,-0.0002
2407.00,-0.0002
2406.00,-0.0002
2405.00,-0.0002
2404.00,-0.0002
2403.00,-0.0002
2402.00,-0.0002
2401.00,-0.0002
2400.00,-0.0002
2399.00,-0.0002
2398.00,-0.0002
2397.00,-0.0002
2396.00,-0.0002
2395.00,-0.0002
2394.00,-0.0002
2393.00,-0.0002
2392.00,-0.0002
2391.00,-0.0002
2390.00,-0.0002
2389.00,-0.0002
2388.00,-0.0002
2387.00,-0.0001
2386.00,-0.0001
2385.00,-0.0001
2384.00,-0.0001
2383.00,-0.0001
2382.00,-0.0001
2381.00,-0.0001
2380.00,-0.0001
2379.00,-0.0002
2378.00,-0.0002
2377.00,-0.0002
2376.00,-0.0002
2375.00,-0.0002
2374.00,-0.0001
2373.00,-0.0001
2372.00,-0.0001
2371.00,-0.0001
2370.00,-0.0001
2369.00,-0.0001
2368.00,-0.0001
2367.00,-0.0001
2366.00,-0.0001
2365.00,-0.0000
2364.00,-0.0000
2363.00,-0.0000
2362.00,-0.0000
2361.00,-0.0000
2360.00,-0.0000
2359.00,-0.0000
2358.00,0.0000
2357.00,0.0001
2356.00,0.0001
2355.00,0.0001
2354.00,0.0001
2353.00,0.0000
2352.00,-0.0000
2351.00,-0.0000
2350.00,-0.0000
2349.00,0.0001
2348.00,0.0001
2347.00,0.0001
2346.00,0.0000
2345.00,-0.0000
2344.00,0.0000
2343.00,0.0001
2342.00,0.0001
2341.00,0.0001
2340.00,0.0001
2339.00,0.0001
2338.00,0.0001
2337.00,0.0001
2336.00,0.0001
2335.00,0.0001
2334.00,0.0001
2333.00,0.0001
2332.00,0.0001
2331.00,0.0001
2330.00,0.0001
2329.00,0.0001
2328.00,0.0001
2327.00,0.0002
2326.00,0.0002
2325.00,0.0002
2324.00,0.0002
2323.00,0.0002
2322.00,0.0002
2321.00,0.0002
2320.00,0.0002
2319.00,0.0002
2318.00,0.0002
2317.00,0.0002
2316.00,0.0002
2315.00,0.0001
2314.00,0.0001
2313.00,0.0001
2312.00,0.0001
2311.00,0.0001
2310.00,0.0001
2309.00,0.0000
2308.00,0.0000
2307.00,0.0000
2306.00,0.0000
2305.00,-0.0000
2304.00,-0.0000
2303.00,-0.0000
2302.00,-0.0000
2301.00,-0.0000
2300.00,-0.0000
2299.00,-0.0001
2298.00,-0.0001
2297.00,-0.0001
2296.00,-0.0001
2295.00,-0.0001
2294.00,-0.0001
2293.00,-0.0001
2292.00,-0.0001
2291.00,-0.0001
2290.00,-0.0001
2289.00,-0.0001
2288.00,-0.0001
2287.00,-0.0001
2286.00,-0.0001
2285.00,-0.0001
2284.00,-0.0001
2283.00,-0.0001
2282.00,-0.0002
2281.00,-0.0002
2280.00,-0.0002
2279.00,-0.0002
2278.00,-0.0001
2277.00,-0.0001
2276.00,-0.0002
2275.00,-0.0002
2274.00,-0.0002
2273.00,-0.0002
2272.00,-0.0002
2271.00,-0.0002
2270.00,-0.0002
2269.00,-0.0002
2268.00,-0.0002
2267.00,-0.0002
2266.00,-0.0002
2265.00,-0.0002
2264.00,-0.0002
2263.00,-0.0002
2262.00,-0.0002
2261.00,-0.0002
2260.00,-0.0002
2259.00,-0.0002
2258.00,-0.0002
2257.00,-0.0002
2256.00,-0.0002
2255.00,-0.0002
2254.00,-0.0001
2253.00,-0.0001
2252.00,-0.0001
2251.00,-0.0001
2250.00,-0.0002
2249.00,-0.0002
2248.00,-0.0002
2247.00,-0.0002
2246.00,-0.0002
2245.00,-0.0002
2244.00,-0.0002
2243.00,-0.0002
2242.00,-0.0002
2241.00,-0.0002
2240.00,-0.0002
2239.00,-0.0002
2238.00,-0.0002
2237.00,-0.0002
2236.00,-0.0002
2235.00,-0.0002
2234.00,-0.0002
2233.00,-0.0002
2232.00,-0.0002
2231.00,-0.0002
2230.00,-0.0002
2229.00,-0.0002
2228.00,-0.0002
2227.00,-0.0002
2226.00,-0.0002
2225.00,-0.0002
2224.00,-0.0002
2223.00,-0.0002
2222.00,-0.0002
2221.00,-0.0002
2220.00,-0.0002
2219.00,-0.0002
2218.00,-0.0002
2217.00,-0.0002
2216.00,-0.0002
2215.00,-0.0002
2214.00,-0.0002
2213.00,-0.0002
2212.00,-0.0002
2211.00,-0.0002
2210.00,-0.0002
2209.00,-0.0002
2208.00,-0.0002
2207.00,-0.0002
2206.00,-0.0002
2205.00,-0.0002
2204.00,-0.0002
2203.00,-0.0002
2202.00,-0.0002
2201.00,-0.0002
2200.00,-0.0002
2199.00,-0.0002
2198.00,-0.0002
2197.00,-0.0002
2196.00,-0.0002
2195.00,-0.0002
2194.00,-0.0002
2193.00,-0.0002
2192.00,-0.0002
2191.00,-0.0002
2190.00,-0.0002
2189.00,-0.0002
2188.00,-0.0002
2187.00,-0.0002
2186.00,-0.0002
2185.00,-0.0002
2184.00,-0.0002
2183.00,-0.0002
2182.00,-0.0002
2181.00,-0.0002
2180.00,-0.0002
2179.00,-0.0002
2178.00,-0.0002
2177.00,-0.0002
2176.00,-0.0002
2175.00,-0.0002
2174.00,-0.0002
2173.00,-0.0002
2172.00,-0.0002
2171.00,-0.0002
2170.00,-0.0002
2169.00,-0.0002
2168.00,-0.0002
2167.00,-0.0002
2166.00,-0.0002
2165.00,-0.0002
2164.00,-0.0002
2163.00,-0.0002
2162.00,-0.0002
2161.00,-0.0002
2160.00,-0.0002
2159.00,-0.0002
2158.00,-0.0002
2157.00,-0.0002
2156.00,-0.0002
2155.00,-0.0002
2154.00,-0.0002
2153.00,-0.0002
2152.00,-0.0002
2151.00,-0.0002
2150.00,-0.0002
2149.00,-0.0002
2148.00,-0.0002
2147.00,-0.0002
2146.00,-0.0002
2145.00,-0.0002
2144.00,-0.0002
2143.00,-0.0002
2142.00,-0.0002
2141.00,-0.0002
2140.00,-0.0002
2139.00,-0.0002
2138.00,-0.0002
2137.00,-0.0002
2136.00,-0.0002
2135.00,-0.0002
2134.00,-0.0002
2133.00,-0.0002
2132.00,-0.0002
2131.00,-0.0002
2130.00,-0.0002
2129.00,-0.0002
2128.00,-0.0002
2127.00,-0.0002
2126.00,-0.0002
2125.00,-0.0002
2124.00,-0.0002
2123.00,-0.0002
2122.00,-0.0002
2121.00,-0.0002
2120.00,-0.0002
2119.00,-0.0002
2118.00,-0.0002
2117.00,-0.0002
2116.00,-0.0002
2115.00,-0.0002
2114.00,-0.0002
2113.00,-0.0002
2112.00,-0.0002
2111.00,-0.0002
2110.00,-0.0002
2109.00,-0.0002
2108.00,-0.0001
2107.00,-0.0001
2106.00,-0.0002
2105.00,-0.0002
2104.00,-0.0002
2103.00,-0.0002
2102.00,-0.0002
2101.00,-0.0002
2100.00,-0.0002
2099.00,-0.0002
2098.00,-0.0002
2097.00,-0.0002
2096.00,-0.0002
2095.00,-0.0002
2094.00,-0.0002
2093.00,-0.0002
2092.00,-0.0002
2091.00,-0.0002
2090.00,-0.0002
2089.00,-0.0002
2088.00,-0.0002
2087.00,-0.0002
2086.00,-0.0002
2085.00,-0.0002
2084.00,-0.0002
2083.00,-0.0002
2082.00,-0.0002
2081.00,-0.0002
2080.00,-0.0002
2079.00,-0.0002
2078.00,-0.0002
2077.00,-0.0002
2076.00,-0.0002
2075.00,-0.0002
2074.00,-0.0002
2073.00,-0.0002
2072.00,-0.0002
2071.00,-0.0002
2070.00,-0.0002
2069.00,-0.0002
2068.00,-0.0002
2067.00,-0.0002
2066.00,-0.0002
2065.00,-0.0002
2064.00,-0.0002
2063.00,-0.0002
2062.00,-0.0002
2061.00,-0.0002
2060.00,-0.0002
2059.00,-0.0002
2058.00,-0.0002
2057.00,-0.0002
2056.00,-0.0002
2055.00,-0.0002
2054.00,-0.0002
2053.00,-0.0002
2052.00,-0.0002
2051.00,-0.0002
2050.00,-0.0002
2049.00,-0.0002
2048.00,-0.0002
2047.00,-0.0002
2046.00,-0.0002
2045.00,-0.0002
2044.00,-0.0002
2043.00,-0.0002
2042.00,-0.0002
2041.00,-0.0002
2040.00,-0.0002
2039.00,-0.0002
2038.00,-0.0002
2037.00,-0.0002
2036.00,-0.0002
2035.00,-0.0002
2034.00,-0.0002
2033.00,-0.0002
2032.00,-0.0002
2031.00,-0.0002
2030.00,-0.0002
2029.00,-0.0002
2028.00,-0.0002
2027.00,-0.0002
2026.00,-0.0002
2025.00,-0.0002
2024.00,-0.0002
2023.00,-0.0002
2022.00,-0.0002
2021.00,-0.0002
2020.00,-0.0002
2019.00,-0.0002
2018.00,-0.0002
2017.00,-0.0002
2016.00,-0.0001
2015.00,-0.0001
2014.00,-0.0001
2013.00,-0.0001
2012.00,-0.0002
2011.00,-0.0002
2010.00,-0.0002
2009.00,-0.0002
2008.00,-0.0002
2007.00,-0.0002
2006.00,-0.0002
2005.00,-0.0001
2004.00,-0.0002
2003.00,-0.0002
2002.00,-0.0002
2001.00,-0.0002
2000.00,-0.0002
1999.00,-0.0002
1998.00,-0.0002
1997.00,-0.0002
1996.00,-0.0002
1995.00,-0.0002
1994.00,-0.0002
1993.00,-0.0002
1992.00,-0.0002
1991.00,-0.0002
1990.00,-0.0002
1989.00,-0.0002
1988.00,-0.0002
1987.00,-0.0002
1986.00,-0.0002
1985.00,-0.0002
1984.00,-0.0002
1983.00,-0.0002
1982.00,-0.0002
1981.00,-0.0002
1980.00,-0.0002
1979.00,-0.0002
1978.00,-0.0001
1977.00,-0.0001
1976.00,-0.0002
1975.00,-0.0002
1974.00,-0.0002
1973.00,-0.0002
1972.00,-0.0002
1971.00,-0.0002
1970.00,-0.0002
1969.00,-0.0002
1968.00,-0.0002
1967.00,-0.0002
1966.00,-0.0002
1965.00,-0.0002
1964.00,-0.0002
1963.00,-0.0002
1962.00,-0.0002
1961.00,-0.0002
1960.00,-0.0002
1959.00,-0.0002
1958.00,-0.0002
1957.00,-0.0002
1956.00,-0.0002
1955.00,-0.0002
1954.00,-0.0002
1953.00,-0.0002
1952.00,-0.0002
1951.00,-0.0002
1950.00,-0.0002
1949.00,-0.0002
1948.00,-0.0002
1947.00,-0.0002
1946.00,-0.0002
1945.00,-0.0001
1944.00,-0.0001
1943.00,-0.0002
1942.00,-0.0002
1941.00,-0.0002
1940.00,-0.0002
1939.00,-0.0002
1938.00,-0.0002
1937.00,-0.0002
1936.00,-0.0002
1935.00,-0.0001
1934.00,-0.0002
1933.00,-0.0002
1932.00,-0.0002
1931.00,-0.0002
1930.00,-0.0002
1929.00,-0.0002
1928.00,-0.0002
1927.00,-0.0002
1926.00,-0.0002
1925.00,-0.0002
1924.00,-0.0002
1923.00,-0.0002
1922.00,-0.0002
1921.00,-0.0002
1920.00,-0.0002
1919.00,-0.0002
1918.00,-0.0002
1917.00,-0.0002
1916.00,-0.0002
1915.00,-0.0002
1914.00,-0.0002
1913.00,-0.0002
1912.00,-0.0002
1911.00,-0.0002
1910.00,-0.0002
1909.00,-0.0002
1908.00,-0.0002
1907.00,-0.0002
1906.00,-0.0002
1905.00,-0.0002
1904.00,-0.0002
1903.00,-0.0002
1902.00,-0.0002
1901.00,-0.0002
1900.00,-0.0002
1899.00,-0.0002
1898.00,-0.0002
1897.00,-0.0002
1896.00,-0.0002
1895.00,-0.0002
1894.00,-0.0002
1893.00,-0.0002
1892.00,-0.0002
1891.00,-0.0002
1890.00,-0.0002
1889.00,-0.0002
1888.00,-0.0002
1887.00,-0.0002
1886.00,-0.0002
1885.00,-0.0002
1884.00,-0.0002
1883.00,-0.0002
1882.00,-0.0001
1881.00,-0.0001
1880.00,-0.0001
1879.00,-0.0002
1878.00,-0.0002
1877.00,-0.0002
1876.00,-0.0002
1875.00,-0.0002
1874.00,-0.0002
1873.00,-0.0002
1872.00,-0.0002
1871.00,-0.0002
1870.00,-0.0002
1869.00,-0.0001
1868.00,-0.0001
1867.00,-0.0001
1866.00,-0.0001
1865.00,-0.0001
1864.00,-0.0001
1863.00,-0.0002
1862.00,-0.0002
1861.00,-0.0002
1860.00,-0.0001
1859.00,-0.0001
1858.00,-0.0001
1857.00,-0.0001
1856.00,-0.0002
1855.00,-0.0002
1854.00,-0.0002
1853.00,-0.0001
1852.00,-0.0001
1851.00,-0.0001
1850.00,-0.0001
1849.00,-0.0001
1848.00,-0.0001
1847.00,-0.0002
1846.00,-0.0002
1845.00,-0.0002
1844.00,-0.0002
1843.00,-0.0002
1842.00,-0.0002
1841.00,-0.0002
1840.00,-0.0002
1839.00,-0.0001
1838.00,-0.0001
1837.00,-0.0001
1836.00,-0.0001
1835.00,-0.0001
1834.00,-0.0001
1833.00,-0.0001
1832.00,-0.0001
1831.00,-0.0001
1830.00,-0.0001
1829.00,-0.0002
1828.00,-0.0002
1827.00,-0.0002
1826.00,-0.0002
1825.00,-0.0002
1824.00,-0.0002
1823.00,-0.0002
1822.00,-0.0002
1821.00,-0.0002
1820.00,-0.0002
1819.00,-0.0002
1818.00,-0.0002
1817.00,-0.0002
1816.00,-0.0002
1815.00,-0.0002
1814.00,-0.0002
1813.00,-0.0002
1812.00,-0.0002
1811.00,-0.0002
1810.00,-0.0002
1809.00,-0.0002
1808.00,-0.0002
1807.00,-0.0002
1806.00,-0.0002
1805.00,-0.0002
1804.00,-0.0001
1803.00,-0.0002
1802.00,-0.0002
1801.00,-0.0002
1800.00,-0.0002
1799.00,-0.0002
1798.00,-0.0002
1797.00,-0.0002
1796.00,-0.0002
1795.00,-0.0002
1794.00,-0.0002
1793.00,-0.0002
1792.00,-0.0002
1791.00,-0.0002
1790.00,-0.0002
1789.00,-0.0002
1788.00,-0.0002
1787.00,-0.0002
1786.00,-0.0002
1785.00,-0.0002
1784.00,-0.0002
1783.00,-0.0002
1782.00,-0.0002
1781.00,-0.0002
1780.00,-0.0002
1779.00,-0.0002
1778.00,-0.0002
1777.00,-0.0002
1776.00,-0.0002
1775.00,-0.0002
1774.00,-0.0002
1773.00,-0.0002
1772.00,-0.0002
1771.00,-0.0002
1770.00,-0.0002
1769.00,-0.0002
1768.00,-0.0002
1767.00,-0.0002
1766.00,-0.0002
1765.00,-0.0002
1764.00,-0.0002
1763.00,-0.0002
1762.00,-0.0002
1761.00,-0.0001
1760.00,-0.0002
1759.00,-0.0002
1758.00,-0.0002
1757.00,-0.0002
1756.00,-0.0002
1755.00,-0.0002
1754.00,-0.0002
1753.00,-0.0002
1752.00,-0.0002
1751.00,-0.0002
1750.00,-0.0002
1749.00,-0.0002
1748.00,-0.0002
1747.00,-0.0002
1746.00,-0.0002
1745.00,-0.0002
1744.00,-0.0002
1743.00,-0.0002
1742.00,-0.0002
1741.00,-0.0002
1740.00,-0.0002
1739.00,-0.0002
1738.00,-0.0001
1737.00,-0.0001
1736.00,-0.0001
1735.00,-0.0001
1734.00,-0.0002
1733.00,-0.0002
1732.00,-0.0002
1731.00,-0.0002
1730.00,-0.0002
1729.00,-0.0002
1728.00,-0.0001
1727.00,-0.0001
1726.00,-0.0001
1725.00,-0.0002
1724.00,-0.0002
1723.00,-0.0002
1722.00,-0.0002
1721.00,-0.0002
1720.00,-0.0002
1719.00,-0.0002
1718.00,-0.0002
1717.00,-0.0002
1716.00,-0.0002
1715.00,-0.0002
1714.00,-0.0002
1713.00,-0.0002
1712.00,-0.0002
1711.00,-0.0002
1710.00,-0.0002
1709.00,-0.0002
1708.00,-0.0002
1707.00,-0.0002
1706.00,-0.0002
1705.00,-0.0002
1704.00,-0.0002
1703.00,-0.0002
1702.00,-0.0002
1701.00,-0.0002
1700.00,-0.0001
1699.00,-0.0001
1698.00,-0.0002
1697.00,-0.0002
1696.00,-0.0002
1695.00,-0.0002
1694.00,-0.0002
1693.00,-0.0002
1692.00,-0.0002
1691.00,-0.0002
1690.00,-0.0002
1689.00,-0.0002
1688.00,-0.0001
1687.00,-0.0001
1686.00,-0.0002
1685.00,-0.0002
1684.00,-0.0002
1683.00,-0.0002
1682.00,-0.0002
1681.00,-0.0002
1680.00,-0.0002
1679.00,-0.0002
1678.00,-0.0002
1677.00,-0.0002
1676.00,-0.0002
1675.00,-0.0002
1674.00,-0.0002
1673.00,-0.0002
1672.00,-0.0002
1671.00,-0.0002
1670.00,-0.0002
1669.00,-0.0002
1668.00,-0.0002
1667.00,-0.0002
1666.00,-0.0002
1665.00,-0.0002
1664.00,-0.0002
1663.00,-0.0002
1662.00,-0.0002
1661.00,-0.0002
1660.00,-0.0002
1659.00,-0.0002
1658.00,-0.0002
1657.00,-0.0002
1656.00,-0.0002
1655.00,-0.0002
1654.00,-0.0002
1653.00,-0.0002
1652.00,-0.0002
1651.00,-0.0002
1650.00,-0.0003
1649.00,-0.0003
1648.00,-0.0002
1647.00,-0.0002
1646.00,-0.0002
1645.00,-0.0002
1644.00,-0.0002
1643.00,-0.0002
1642.00,-0.0002
1641.00,-0.0002
1640.00,-0.0002
1639.00,-0.0002
1638.00,-0.0002
1637.00,-0.0002
1636.00,-0.0002
1635.00,-0.0002
1634.00,-0.0002
1633.00,-0.0002
1632.00,-0.0002
1631.00,-0.0002
1630.00,-0.0002
1629.00,-0.0002
1628.00,-0.0002
1627.00,-0.0002
1626.00,-0.0002
1625.00,-0.0002
1624.00,-0.0002
1623.00,-0.0002
1622.00,-0.0002
1621.00,-0.0002
1620.00,-0.0002
1619.00,-0.0002
1618.00,-0.0002
1617.00,-0.0002
1616.00,-0.0001
1615.00,-0.0002
1614.00,-0.0002
1613.00,-0.0002
1612.00,-0.0002
1611.00,-0.0002
1610.00,-0.0002
1609.00,-0.0002
1608.00,-0.0002
1607.00,-0.0002
1606.00,-0.0002
1605.00,-0.0001
1604.00,-0.0001
1603.00,-0.0001
1602.00,-0.0001
1601.00,-0.0002
1600.00,-0.0002
1599.00,-0.0002
1598.00,-0.0002
1597.00,-0.0002
1596.00,-0.0002
1595.00,-0.0002
1594.00,-0.0002
1593.00,-0.0002
1592.00,-0.0001
1591.00,-0.0001
1590.00,-0.0002
1589.00,-0.0002
1588.00,-0.0002
1587.00,-0.0002
1586.00,-0.0002
1585.00,-0.0002
1584.00,-0.0002
1583.00,-0.0002
1582.00,-0.0002
1581.00,-0.0002
1580.00,-0.0002
1579.00,-0.0002
1578.00,-0.0002
1577.00,-0.0002
1576.00,-0.0002
1575.00,-0.0002
1574.00,-0.0002
1573.00,-0.0002
1572.00,-0.0002
1571.00,-0.0002
1570.00,-0.0001
1569.00,-0.0002
1568.00,-0.0002
1567.00,-0.0002
1566.00,-0.0002
1565.00,-0.0002
1564.00,-0.0002
1563.00,-0.0002
1562.00,-0.0002
1561.00,-0.0002
1560.00,-0.0002
1559.00,-0.0002
1558.00,-0.0002
1557.00,-0.0002
1556.00,-0.0002
1555.00,-0.0002
1554.00,-0.0002
1553.00,-0.0002
1552.00,-0.0002
1551.00,-0.0002
1550.00,-0.0001
1549.00,-0.0001
1548.00,-0.0001
1547.00,-0.0001
1546.00,-0.0001
1545.00,-0.0001
1544.00,-0.0001
1543.00,-0.0001
1542.00,-0.0001
1541.00,-0.0002
1540.00,-0.0002
1539.00,-0.0002
1538.00,-0.0002
1537.00,-0.0002
1536.00,-0.0002
1535.00,-0.0002
1534.00,-0.0002
1533.00,-0.0002
1532.00,-0.0002
1531.00,-0.0002
1530.00,-0.0002
1529.00,-0.0002
1528.00,-0.0002
1527.00,-0.0002
1526.00,-0.0002
1525.00,-0.0002
1524.00,-0.0002
1523.00,-0.0002
1522.00,-0.0002
1521.00,-0.0002
1520.00,-0.0002
1519.00,-0.0002
1518.00,-0.0002
1517.00,-0.0002
1516.00,-0.0002
1515.00,-0.0002
1514.00,-0.0002
1513.00,-0.0002
1512.00,-0.0002
1511.00,-0.0002
1510.00,-0.0002
1509.00,-0.0002
1508.00,-0.0002
1507.00,-0.0002
1506.00,-0.0002
1505.00,-0.0002
1504.00,-0.0002
1503.00,-0.0002
1502.00,-0.0002
1501.00,-0.0002
1500.00,-0.0002
1499.00,-0.0002
1498.00,-0.0002
1497.00,-0.0001
1496.00,-0.0001
1495.00,-0.0001
1494.00,-0.0001
1493.00,-0.0001
1492.00,-0.0002
1491.00,-0.0002
1490.00,-0.0002
1489.00,-0.0002
1488.00,-0.0002
1487.00,-0.0001
1486.00,-0.0001
1485.00,-0.0001
1484.00,-0.0001
1483.00,-0.0002
1482.00,-0.0002
1481.00,-0.0002
1480.00,-0.0002
1479.00,-0.0002
1478.00,-0.0001
1477.00,-0.0001
1476.00,-0.0001
1475.00,-0.0001
1474.00,-0.0002
1473.00,-0.0002
1472.00,-0.0002
1471.00,-0.0002
1470.00,-0.0002
1469.00,-0.0002
1468.00,-0.0002
1467.00,-0.0001
1466.00,-0.0001
1465.00,-0.0001
1464.00,-0.0001
1463.00,-0.0001
1462.00,-0.0001
1461.00,-0.0001
1460.00,-0.0001
1459.00,-0.0001
1458.00,-0.0001
1457.00,-0.0002
1456.00,-0.0002
1455.00,-0.0002
1454.00,-0.0002
1453.00,-0.0002
1452.00,-0.0002
1451.00,-0.0002
1450.00,-0.0001
1449.00,-0.0001
1448.00,-0.0001
1447.00,-0.0001
1446.00,-0.0001
1445.00,-0.0001
1444.00,-0.0001
1443.00,-0.0001
1442.00,-0.0001
1441.00,-0.0001
1440.00,-0.0001
1439.00,-0.0001
1438.00,-0.0001
1437.00,-0.0001
1436.00,-0.0001
1435.00,-0.0001
1434.00,-0.0001
1433.00,-0.0001
1432.00,-0.0001
1431.00,-0.0002
1430.00,-0.0002
1429.00,-0.0002
1428.00,-0.0002
1427.00,-0.0001
1426.00,-0.0001
1425.00,-0.0001
1424.00,-0.0001
1423.00,-0.0002
1422.00,-0.0002
1421.00,-0.0002
1420.00,-0.0002
1419.00,-0.0002
1418.00,-0.0002
1417.00,-0.0002
1416.00,-0.0002
1415.00,-0.0001
1414.00,-0.0001
1413.00,-0.0001
1412.00,-0.0001
1411.00,-0.0001
1410.00,-0.0002
1409.00,-0.0002
1408.00,-0.0001
1407.00,-0.0001
1406.00,-0.0001
1405.00,-0.0001
1404.00,-0.0001
1403.00,-0.0001
1402.00,-0.0001
1401.00,-0.0001
1400.00,-0.0001
1399.00,-0.0001
1398.00,-0.0001
1397.00,-0.0002
1396.00,-0.0002
1395.00,-0.0002
1394.00,-0.0002
1393.00,-0.0002
1392.00,-0.0001
1391.00,-0.0001
1390.00,-0.0001
1389.00,-0.0001
1388.00,-0.0001
1387.00,-0.0001
1386.00,-0.0001
1385.00,-0.0001
1384.00,-0.0001
1383.00,-0.0001
1382.00,-0.0001
1381.00,-0.0002
1380.00,-0.0002
1379.00,-0.0002
1378.00,-0.0002
1377.00,-0.0001
1376.00,-0.0001
1375.00,-0.0001
1374.00,-0.0001
1373.00,-0.0001
1372.00,-0.0002
1371.00,-0.0002
1370.00,-0.0001
1369.00,-0.0001
1368.00,-0.0001
1367.00,-0.0001
1366.00,-0.0001
1365.00,-0.0001
1364.00,-0.0001
1363.00,-0.0001
1362.00,-0.0001
1361.00,-0.0001
1360.00,-0.0001
1359.00,-0.0001
1358.00,-0.0001
1357.00,-0.0001
1356.00,-0.0001
1355.00,-0.0002
1354.00,-0.0002
1353.00,-0.0002
1352.00,-0.0002
1351.00,-0.0001
1350.00,-0.0001
1349.00,-0.0001
1348.00,-0.0001
1347.00,-0.0001
1346.00,-0.0001
1345.00,-0.0001
1344.00,-0.0001
1343.00,-0.0002
1342.00,-0.0002
1341.00,-0.0002
1340.00,-0.0002
1339.00,-0.0002
1338.00,-0.0002
1337.00,-0.0002
1336.00,-0.0002
1335.00,-0.0002
1334.00,-0.0001
1333.00,-0.0001
1332.00,-0.0002
1331.00,-0.0001
1330.00,-0.0001
1329.00,-0.0001
1328.00,-0.0001
1327.00,-0.0001
1326.00,-0.0001
1325.00,-0.0001
1324.00,-0.0001
1323.00,-0.0001
1322.00,-0.0001
1321.00,-0.0001
1320.00,-0.0001
1319.00,-0.0001
1318.00,-0.0001
1317.00,-0.0002
1316.00,-0.0002
1315.00,-0.0002
1314.00,-0.0002
1313.00,-0.0002
1312.00,-0.0002
1311.00,-0.0002
1310.00,-0.0002
1309.00,-0.0002
1308.00,-0.0002
1307.00,-0.0002
1306.00,-0.0002
1305.00,-0.0002
1304.00,-0.0002
1303.00,-0.0001
1302.00,-0.0001
1301.00,-0.0001
1300.00,-0.0001
1299.00,-0.0001
1298.00,-0.0002
1297.00,-0.0002
1296.00,-0.0002
1295.00,-0.0002
1294.00,-0.0002
1293.00,-0.0002
1292.00,-0.0002
1291.00,-0.0001
1290.00,-0.0001
1289.00,-0.0001
1288.00,-0.0001
1287.00,-0.0001
1286.00,-0.0001
1285.00,-0.0001
1284.00,-0.0001
1283.00,-0.0001
1282.00,-0.0001
1281.00,-0.0001
1280.00,-0.0001
1279.00,-0.0002
1278.00,-0.0002
1277.00,-0.0002
1276.00,-0.0002
1275.00,-0.0002
1274.00,-0.0002
1273.00,-0.0001
1272.00,-0.0001
1271.00,-0.0001
1270.00,-0.0001
1269.00,-0.0001
1268.00,-0.0001
1267.00,-0.0001
1266.00,-0.0001
1265.00,-0.0001
1264.00,-0.0001
1263.00,-0.0001
1262.00,-0.0001
1261.00,-0.0001
1260.00,-0.0001
1259.00,-0.0001
1258.00,-0.0001
1257.00,-0.0001
1256.00,-0.0001
1255.00,-0.0001
1254.00,-0.0001
1253.00,-0.0001
1252.00,-0.0001
1251.00,-0.0001
1250.00,-0.0001
1249.00,-0.0001
1248.00,-0.0001
1247.00,-0.0001
1246.00,-0.0001
1245.00,-0.0001
1244.00,-0.0001
1243.00,-0.0001
1242.00,-0.0001
1241.00,-0.0001
1240.00,-0.0001
1239.00,-0.0001
1238.00,-0.0001
1237.00,-0.0001
1236.00,-0.0002
1235.00,-0.0002
1234.00,-0.0002
1233.00,-0.0001
1232.00,-0.0001
1231.00,-0.0001
1230.00,-0.0001
1229.00,-0.0001
1228.00,-0.0001
1227.00,-0.0001
1226.00,-0.0001
1225.00,-0.0001
1224.00,-0.0001
1223.00,-0.0001
1222.00,-0.0001
1221.00,-0.0001
1220.00,-0.0001
1219.00,-0.0001
1218.00,-0.0001
1217.00,-0.0001
1216.00,-0.0001
1215.00,-0.0001
1214.00,-0.0001
1213.00,-0.0001
1212.00,-0.0001
1211.00,-0.0001
1210.00,-0.0001
1209.00,-0.0001
1208.00,-0.0001
1207.00,-0.0001
1206.00,-0.0001
1205.00,-0.0001
1204.00,-0.0001
1203.00,-0.0001
1202.00,-0.0001
1201.00,-0.0001
1200.00,-0.0001
1199.00,-0.0001
1198.00,-0.0001
1197.00,-0.0001
1196.00,-0.0001
1195.00,-0.0001
1194.00,-0.0001
1193.00,-0.0001
1192.00,-0.0001
1191.00,-0.0001
1190.00,-0.0001
1189.00,-0.0001
1188.00,-0.0001
1187.00,-0.0001
1186.00,-0.0001
1185.00,-0.0001
1184.00,-0.0001
1183.00,-0.0001
1182.00,-0.0001
1181.00,-0.0001
1180.00,-0.0001
1179.00,-0.0001
1178.00,-0.0001
1177.00,-0.0001
1176.00,-0.0001
1175.00,-0.0001
1174.00,-0.0001
1173.00,-0.0001
1172.00,-0.0001
1171.00,-0.0001
1170.00,-0.0001
1169.00,-0.0001
1168.00,-0.0001
1167.00,-0.0001
1166.00,-0.0001
1165.00,-0.0001
1164.00,-0.0001
1163.00,-0.0001
1162.00,-0.0001
1161.00,-0.0001
1160.00,-0.0001
1159.00,-0.0001
1158.00,-0.0001
1157.00,-0.0001
1156.00,-0.0001
1155.00,-0.0001
1154.00,-0.0001
1153.00,-0.0001
1152.00,-0.0001
1151.00,-0.0001
1150.00,-0.0001
1149.00,-0.0001
1148.00,-0.0001
1147.00,-0.0001
1146.00,-0.0001
1145.00,-0.0001
1144.00,-0.0001
1143.00,-0.0001
1142.00,-0.0001
1141.00,-0.0001
1140.00,-0.0001
1139.00,-0.0001
1138.00,-0.0001
1137.00,-0.0001
1136.00,-0.0001
1135.00,-0.0001
1134.00,-0.0001
1133.00,-0.0001
1132.00,-0.0001
1131.00,-0.0001
1130.00,-0.0001
1129.00,-0.0001
1128.00,-0.0001
1127.00,-0.0001
1126.00,-0.0001
1125.00,-0.0001
1124.00,-0.0001
1123.00,-0.0001
1122.00,-0.0001
1121.00,-0.0001
1120.00,-0.0001
1119.00,-0.0001
1118.00,-0.0001
1117.00,-0.0001
1116.00,-0.0001
1115.00,-0.0001
1114.00,-0.0001
1113.00,-0.0001
1112.00,-0.0001
1111.00,-0.0001
1110.00,-0.0001
1109.00,-0.0001
1108.00,-0.0001
1107.00,-0.0001
1106.00,-0.0001
1105.00,-0.0001
1104.00,-0.0001
1103.00,-0.0001
1102.00,-0.0001
1101.00,-0.0001
1100.00,-0.0001
1099.00,-0.0002
1098.00,-0.0002
1097.00,-0.0002
1096.00,-0.0002
1095.00,-0.0001
1094.00,-0.0001
1093.00,-0.0001
1092.00,-0.0001
1091.00,-0.0001
1090.00,-0.0001
1089.00,-0.0001
1088.00,-0.0001
1087.00,-0.0001
1086.00,-0.0001
1085.00,-0.0001
1084.00,-0.0001
1083.00,-0.0001
1082.00,-0.0001
1081.00,-0.0001
1080.00,-0.0001
1079.00,-0.0001
1078.00,-0.0001
1077.00,-0.0001
1076.00,-0.0001
1075.00,-0.0001
1074.00,-0.0001
1073.00,-0.0001
1072.00,-0.0001
1071.00,-0.0001
1070.00,-0.0001
1069.00,-0.0002
1068.00,-0.0002
1067.00,-0.0002
1066.00,-0.0002
1065.00,-0.0001
1064.00,-0.0001
1063.00,-0.0001
1062.00,-0.0001
1061.00,-0.0001
1060.00,-0.0001
1059.00,-0.0001
1058.00,-0.0001
1057.00,-0.0001
1056.00,-0.0001
1055.00,-0.0001
1054.00,-0.0001
1053.00,-0.0001
1052.00,-0.0001
1051.00,-0.0001
1050.00,-0.0001
1049.00,-0.0001
1048.00,-0.0001
1047.00,-0.0001
1046.00,-0.0001
1045.00,-0.0001
1044.00,-0.0001
1043.00,-0.0001
1042.00,-0.0001
1041.00,-0.0001
1040.00,-0.0001
1039.00,-0.0001
1038.00,-0.0001
1037.00,-0.0001
1036.00,-0.0001
1035.00,-0.0001
1034.00,-0.0001
1033.00,-0.0001
1032.00,-0.0001
1031.00,-0.0001
1030.00,-0.0001
1029.00,-0.0001
1028.00,-0.0001
1027.00,-0.0001
1026.00,-0.0001
1025.00,-0.0001
1024.00,-0.0001
1023.00,-0.0001
1022.00,-0.0001
1021.00,-0.0001
1020.00,-0.0001
1019.00,-0.0001
1018.00,-0.0001
1017.00,-0.0001
1016.00,-0.0000
1015.00,-0.0000
1014.00,-0.0000
1013.00,-0.0001
1012.00,-0.0001
1011.00,-0.0001
1010.00,-0.0001
1009.00,-0.0001
1008.00,-0.0001
1007.00,-0.0001
1006.00,-0.0001
1005.00,-0.0001
1004.00,-0.0001
1003.00,-0.0001
1002.00,-0.0001
1001.00,-0.0001
1000.00,-0.0001
999.00,-0.0001
998.00,-0.0001
997.00,-0.0001
996.00,-0.0001
995.00,-0.0001
994.00,-0.0001
993.00,-0.0001
992.00,-0.0001
991.00,-0.0001
990.00,-0.0001
989.00,-0.0001
988.00,-0.0001
987.00,-0.0001
986.00,-0.0001
985.00,-0.0001
984.00,-0.0001
983.00,-0.0001
982.00,-0.0001
981.00,-0.0002
980.00,-0.0002
979.00,-0.0001
978.00,-0.0001
977.00,-0.0001
976.00,-0.0001
975.00,-0.0001
974.00,-0.0001
973.00,-0.0001
972.00,-0.0001
971.00,-0.0001
970.00,-0.0000
969.00,-0.0000
968.00,-0.0000
967.00,-0.0001
966.00,-0.0001
965.00,-0.0001
964.00,-0.0002
963.00,-0.0002
962.00,-0.0002
961.00,-0.0001
960.00,-0.0001
959.00,-0.0001
958.00,-0.0001
957.00,-0.0001
956.00,-0.0001
955.00,-0.0001
954.00,-0.0001
953.00,-0.0000
952.00,-0.0001
951.00,-0.0001
950.00,-0.0001
949.00,-0.0001
948.00,-0.0001
947.00,-0.0001
946.00,-0.0001
945.00,-0.0001
944.00,-0.0001
943.00,-0.0001
942.00,-0.0001
941.00,-0.0001
940.00,-0.0001
939.00,-0.0001
938.00,-0.0001
937.00,-0.0001
936.00,-0.0001
935.00,-0.0001
934.00,-0.0001
933.00,-0.0001
932.00,-0.0001
931.00,-0.0001
930.00,-0.0001
929.00,-0.0001
928.00,-0.0001
927.00,-0.0001
926.00,-0.0001
925.00,-0.0001
924.00,-0.0001
923.00,-0.0001
922.00,-0.0001
921.00,-0.0001
920.00,-0.0001
919.00,-0.0001
918.00,-0.0001
917.00,-0.0001
916.00,-0.0001
915.00,-0.0001
914.00,-0.0001
913.00,-0.0001
912.00,-0.0001
911.00,-0.0001
910.00,-0.0001
909.00,-0.0001
908.00,-0.0001
907.00,-0.0001
906.00,-0.0000
905.00,-0.0000
904.00,-0.0001
903.00,-0.0001
902.00,-0.0002
901.00,-0.0002
900.00,-0.0002
899.00,-0.0002
898.00,-0.0002
897.00,-0.0002
896.00,-0.0002
895.00,-0.0002
894.00,-0.0002
893.00,-0.0002
892.00,-0.0002
891.00,-0.0002
890.00,-0.0001
889.00,-0.0001
888.00,-0.0001
887.00,-0.0001
886.00,-0.0001
885.00,-0.0001
884.00,-0.0001
883.00,-0.0001
882.00,-0.0001
881.00,-0.0001
880.00,-0.0002
879.00,-0.0001
878.00,-0.0001
877.00,-0.0001
876.00,-0.0001
875.00,-0.0001
874.00,-0.0001
873.00,-0.0001
872.00,-0.0001
871.00,-0.0001
870.00,-0.0001
869.00,-0.0001
868.00,-0.0001
867.00,-0.0001
866.00,-0.0001
865.00,-0.0001
864.00,-0.0001
863.00,-0.0001
862.00,-0.0001
861.00,-0.0001
860.00,-0.0002
859.00,-0.0002
858.00,-0.0002
857.00,-0.0001
856.00,-0.0001
855.00,-0.0001
854.00,-0.0001
853.00,-0.0001
852.00,-0.0002
851.00,-0.0002
850.00,-0.0002
849.00,-0.0001
848.00,-0.0001
847.00,-0.0001
846.00,-0.0001
845.00,-0.0002
844.00,-0.0002
843.00,-0.0002
842.00,-0.0001
841.00,-0.0001
840.00,-0.0000
839.00,-0.0001
838.00,-0.0001
837.00,-0.0001
836.00,-0.0001
835.00,-0.0001
834.00,-0.0001
833.00,-0.0001
832.00,-0.0002
831.00,-0.0002
830.00,-0.0002
829.00,-0.0002
828.00,-0.0001
827.00,-0.0001
826.00,-0.0001
825.00,-0.0001
824.00,-0.0001
823.00,-0.0001
822.00,-0.0001
821.00,-0.0001
820.00,-0.0001
819.00,-0.0001
818.00,-0.0002
817.00,-0.0002
816.00,-0.0002
815.00,-0.0002
814.00,-0.0002
813.00,-0.0002
812.00,-0.0002
811.00,-0.0002
810.00,-0.0001
809.00,-0.0001
808.00,-0.0001
807.00,-0.0001
806.00,-0.0001
805.00,-0.0001
804.00,-0.0001
803.00,-0.0001
802.00,-0.0001
801.00,-0.0002
800.00,-0.0002
799.00,-0.0002
798.00,-0.0002
797.00,-0.0002
796.00,-0.0002
795.00,-0.0002
794.00,-0.0002
793.00,-0.0001
792.00,-0.0001
791.00,-0.0001
790.00,-0.0001
789.00,-0.0001
788.00,-0.0001
787.00,-0.0001
786.00,-0.0001
785.00,-0.0001
784.00,-0.0001
783.00,-0.0001
782.00,-0.0001
781.00,-0.0001
780.00,-0.0001
779.00,-0.0001
778.00,-0.0001
777.00,-0.0001
776.00,-0.0000
775.00,-0.0001
774.00,-0.0001
773.00,-0.0001
772.00,-0.0001
771.00,-0.0001
770.00,-0.0001
769.00,-0.0001
768.00,-0.0002
767.00,-0.0001
766.00,-0.0001
765.00,-0.0001
764.00,-0.0001
763.00,-0.0001
762.00,-0.0001
761.00,-0.0001
760.00,-0.0001
759.00,-0.0001
758.00,-0.0001
757.00,-0.0002
756.00,-0.0002
755.00,-0.0001
754.00,-0.0001
753.00,-0.0001
752.00,-0.0002
751.00,-0.0002
750.00,-0.0001
749.00,-0.0001
748.00,-0.0001
747.00,-0.0002
746.00,-0.0002
745.00,-0.0002
744.00,-0.0002
743.00,-0.0002
742.00,-0.0001
741.00,-0.0001
740.00,-0.0002
739.00,-0.0002
738.00,-0.0002
737.00,-0.0002
736.00,-0.0002
735.00,-0.0001
734.00,-0.0001
733.00,-0.0001
732.00,-0.0001
731.00,-0.0000
730.00,-0.0000
729.00,-0.0000
728.00,-0.0000
727.00,-0.0001
726.00,-0.0001
725.00,-0.0002
724.00,-0.0002
723.00,-0.0002
722.00,-0.0002
721.00,-0.0001
720.00,-0.0001
719.00,-0.0001
718.00,-0.0001
717.00,-0.0001
716.00,-0.0001
715.00,-0.0001
714.00,-0.0002
713.00,-0.0002
712.00,-0.0002
711.00,-0.0001
710.00,-0.0001
709.00,-0.0001
708.00,-0.0001
707.00,-0.0001
706.00,-0.0001
705.00,-0.0001
704.00,-0.0001
703.00,-0.0002
702.00,-0.0002
701.00,-0.0002
700.00,-0.0003
699.00,-0.0003
698.00,-0.0002
697.00,-0.0002
696.00,-0.0002
695.00,-0.0002
694.00,-0.0002
693.00,-0.0002
692.00,-0.0002
691.00,-0.0002
690.00,-0.0002
689.00,-0.0002
688.00,-0.0002
687.00,-0.0002
686.00,-0.0002
685.00,-0.0001
684.00,-0.0001
683.00,-0.0001
682.00,-0.0001
681.00,-0.0001
680.00,-0.0001
679.00,-0.0002
678.00,-0.0002
677.00,-0.0003
676.00,-0.0003
675.00,-0.0003
674.00,-0.0002
673.00,-0.0002
672.00,-0.0003
671.00,-0.0005
670.00,-0.0008
669.00,-0.0011
668.00,-0.0013
667.00,-0.0011
666.00,-0.0008
665.00,-0.0005
664.00,-0.0003
663.00,-0.0002
662.00,-0.0001
661.00,-0.0002
660.00,-0.0002
659.00,-0.0003
658.00,-0.0003
657.00,-0.0004
656.00,-0.0003
655.00,-0.0003
654.00,-0.0003
653.00,-0.0002
652.00,-0.0002
651.00,-0.0002
650.00,-0.0002
649.00,-0.0002
648.00,-0.0002
647.00,-0.0002
646.00,-0.0001
645.00,-0.0001
644.00,-0.0001
643.00,-0.0001
642.00,-0.0001
641.00,-0.0002
640.00,-0.0001
639.00,-0.0001
638.00,-0.0000
637.00,-0.0001
636.00,-0.0001
635.00,-0.0002
634.00,-0.0002
633.00,-0.0002
632.00,-0.0001
631.00,-0.0000
630.00,0.0000
629.00,0.0000
628.00,-0.0000
627.00,-0.0001
626.00,-0.0002
625.00,-0.0003
624.00,-0.0003
623.00,-0.0002
622.00,-0.0002
621.00,-0.0002
620.00,-0.0002
619.00,-0.0002
618.00,-0.0002
617.00,-0.0002
616.00,-0.0002
615.00,-0.0002
614.00,-0.0003
613.00,-0.0003
612.00,-0.0003
611.00,-0.0002
610.00,-0.0001
609.00,-0.0001
608.00,-0.0001
607.00,-0.0001
606.00,-0.0001
605.00,-0.0002
604.00,-0.0002
603.00,-0.0001
602.00,-0.0001
601.00,-0.0001
600.00,-0.0001
599.00,-0.0001
598.00,-0.0001
597.00,-0.0001
596.00,-0.0000
595.00,-0.0000
594.00,-0.0001
593.00,-0.0003
592.00,-0.0005
591.00,-0.0006
590.00,-0.0005
589.00,-0.0003
588.00,-0.0001
587.00,-0.0000
586.00,-0.0001
585.00,-0.0001
584.00,-0.0002
583.00,-0.0001
582.00,-0.0001
581.00,-0.0000
580.00,0.0000
579.00,0.0000
578.00,-0.0000
577.00,-0.0001
576.00,-0.0001
575.00,-0.0002
574.00,-0.0002
573.00,-0.0002
572.00,-0.0001
571.00,-0.0002
570.00,-0.0003
569.00,-0.0004
568.00,-0.0005
567.00,-0.0004
566.00,-0.0004
565.00,-0.0003
564.00,-0.0001
563.00,0.0000
562.00,0.0001
561.00,0.0001
560.00,-0.0001
559.00,-0.0003
558.00,-0.0003
557.00,-0.0003
556.00,-0.0001
555.00,-0.0001
554.00,-0.0001
553.00,-0.0001
552.00,-0.0001
551.00,-0.0000
550.00,0.0000
549.00,0.0000
548.00,0.0000
547.00,-0.0000
546.00,-0.0001
545.00,-0.0001
544.00,-0.0001
543.00,-0.0000
542.00,0.0000
541.00,0.0001
540.00,0.0001
539.00,0.0000
538.00,-0.0001
537.00,-0.0002
536.00,-0.0002
535.00,-0.0001
534.00,-0.0001
533.00,0.0000
532.00,0.0000
531.00,-0.0001
530.00,-0.0002
529.00,-0.0003
528.00,-0.0002
527.00,-0.0002
526.00,-0.0001
525.00,-0.0000
524.00,-0.0000
523.00,-0.0000
522.00,-0.0001
521.00,-0.0001
520.00,-0.0002
519.00,-0.0002
518.00,-0.0001
517.00,-0.0002
516.00,-0.0002
515.00,-0.0003
514.00,-0.0004
513.00,-0.0004
512.00,-0.0003
511.00,-0.0003
510.00,-0.0004
509.00,-0.0005
508.00,-0.0005
507.00,-0.0005
506.00,-0.0005
505.00,-0.0005
504.00,-0.0004
503.00,-0.0005
502.00,-0.0005
501.00,-0.0005
500.00,-0.0004
