Created as New Dataset,Sample 349 By Analyst Date Tuesday, February 04 2025
cm-1,A
4000.00,-0.0010
3999.00,-0.0010
3998.00,-0.0010
3997.00,-0.0010
3996.00,-0.0010
3995.00,-0.0010
3994.00,-0.0010
3993.00,-0.0010
3992.00,-0.0010
3991.00,-0.0010
3990.00,-0.0010
3989.00,-0.0010
3988.00,-0.0010
3987.00,-0.0010
3986.00,-0.0010
3985.00,-0.0010
3984.00,-0.0010
3983.00,-0.0010
3982.00,-0.0010
3981.00,-0.0010
3980.00,-0.0010
3979.00,-0.0010
3978.00,-0.0010
3977.00,-0.0010
3976.00,-0.0010
3975.00,-0.0010
3974.00,-0.0010
3973.00,-0.0010
3972.00,-0.0010
3971.00,-0.0010
3970.00,-0.0010
3969.00,-0.0010
3968.00,-0.0010
3967.00,-0.0010
3966.00,-0.0010
3965.00,-0.0010
3964.00,-0.0010
3963.00,-0.0010
3962.00,-0.0010
3961.00,-0.0010
3960.00,-0.0010
3959.00,-0.0010
3958.00,-0.0010
3957.00,-0.0010
3956.00,-0.0010
3955.00,-0.0010
3954.00,-0.0010
3953.00,-0.0010
3952.00,-0.0010
3951.00,-0.0010
3950.00,-0.0009
3949.00,-0.0009
3948.00,-0.0009
3947.00,-0.0009
3946.00,-0.0009
3945.00,-0.0009
3944.00,-0.0009
3943.00,-0.0009
3942.00,-0.0009
3941.00,-0.0009
3940.00,-0.0009
3939.00,-0.0009
3938.00,-0.0009
3937.00,-0.0010
3936.00,-0.0009
3935.00,-0.0009
3934.00,-0.0009
3933.00,-0.0009
3932.00,-0.0009
3931.00,-0.0009
3930.00,-0.0009
3929.00,-0.0009
3928.00,-0.0009
3927.00,-0.0009
3926.00,-0.0009
3925.00,-0.0009
3924.00,-0.0009
3923.00,-0.0009
3922.00,-0.0009
3921.00,-0.0008
3920.00,-0.0008
3919.00,-0.0008
3918.00,-0.0008
3917.00,-0.0008
3916.00,-0.0009
3915.00,-0.0009
3914.00,-0.0009
3913.00,-0.0009
3912.00,-0.0010
3911.00,-0.0010
3910.00,-0.0010
3909.00,-0.0010
3908.00,-0.0009
3907.00,-0.0009
3906.00,-0.0009
3905.00,-0.0008
3904.00,-0.0007
3903.00,-0.0006
3902.00,-0.0006
3901.00,-0.0005
3900.00,-0.0005
3899.00,-0.0006
3898.00,-0.0007
3897.00,-0.0007
3896.00,-0.0008
3895.00,-0.0008
3894.00,-0.0008
3893.00,-0.0009
3892.00,-0.0009
3891.00,-0.0009
3890.00,-0.0009
3889.00,-0.0008
3888.00,-0.0007
3887.00,-0.0007
3886.00,-0.0007
3885.00,-0.0007
3884.00,-0.0007
3883.00,-0.0007
3882.00,-0.0007
3881.00,-0.0007
3880.00,-0.0007
3879.00,-0.0008
3878.00,-0.0008
3877.00,-0.0007
3876.00,-0.0007
3875.00,-0.0007
3874.00,-0.0008
3873.00,-0.0008
3872.00,-0.0007
3871.00,-0.0006
3870.00,-0.0006
3869.00,-0.0006
3868.00,-0.0007
3867.00,-0.0006
3866.00,-0.0006
3865.00,-0.0006
3864.00,-0.0007
3863.00,-0.0007
3862.00,-0.0007
3861.00,-0.0007
3860.00,-0.0007
3859.00,-0.0007
3858.00,-0.0009
3857.00,-0.0010
3856.00,-0.0010
3855.00,-0.0010
3854.00,-0.0009
3853.00,-0.0008
3852.00,-0.0007
3851.00,-0.0007
3850.00,-0.0006
3849.00,-0.0006
3848.00,-0.0007
3847.00,-0.0007
3846.00,-0.0007
3845.00,-0.0007
3844.00,-0.0008
3843.00,-0.0007
3842.00,-0.0007
3841.00,-0.0007
3840.00,-0.0007
3839.00,-0.0006
3838.00,-0.0006
3837.00,-0.0006
3836.00,-0.0006
3835.00,-0.0006
3834.00,-0.0006
3833.00,-0.0006
3832.00,-0.0007
3831.00,-0.0007
3830.00,-0.0007
3829.00,-0.0007
3828.00,-0.0007
3827.00,-0.0007
3826.00,-0.0008
3825.00,-0.0008
3824.00,-0.0007
3823.00,-0.0007
3822.00,-0.0006
3821.00,-0.0007
3820.00,-0.0007
3819.00,-0.0007
3818.00,-0.0006
3817.00,-0.0006
3816.00,-0.0006
3815.00,-0.0007
3814.00,-0.0008
3813.00,-0.0008
3812.00,-0.0008
3811.00,-0.0008
3810.00,-0.0009
3809.00,-0.0009
3808.00,-0.0008
3807.00,-0.0008
3806.00,-0.0008
3805.00,-0.0008
3804.00,-0.0007
3803.00,-0.0007
3802.00,-0.0007
3801.00,-0.0007
3800.00,-0.0008
3799.00,-0.0007
3798.00,-0.0006
3797.00,-0.0007
3796.00,-0.0007
3795.00,-0.0008
3794.00,-0.0008
3793.00,-0.0008
3792.00,-0.0009
3791.00,-0.0009
3790.00,-0.0009
3789.00,-0.0010
3788.00,-0.0009
3787.00,-0.0009
3786.00,-0.0009
3785.00,-0.0009
3784.00,-0.0009
3783.00,-0.0009
3782.00,-0.0009
3781.00,-0.0008
3780.00,-0.0008
3779.00,-0.0009
3778.00,-0.0009
3777.00,-0.0009
3776.00,-0.0009
3775.00,-0.0009
3774.00,-0.0009
3773.00,-0.0009
3772.00,-0.0009
3771.00,-0.0008
3770.00,-0.0008
3769.00,-0.0008
3768.00,-0.0008
3767.00,-0.0007
3766.00,-0.0007
3765.00,-0.0008
3764.00,-0.0008
3763.00,-0.0008
3762.00,-0.0007
3761.00,-0.0007
3760.00,-0.0007
3759.00,-0.0007
3758.00,-0.0007
3757.00,-0.0007
3756.00,-0.0007
3755.00,-0.0006
3754.00,-0.0006
3753.00,-0.0006
3752.00,-0.0006
3751.00,-0.0005
3750.00,-0.0004
3749.00,-0.0004
3748.00,-0.0004
3747.00,-0.0004
3746.00,-0.0004
3745.00,-0.0004
3744.00,-0.0004
3743.00,-0.0005
3742.00,-0.0004
3741.00,-0.0004
3740.00,-0.0003
3739.00,-0.0003
3738.00,-0.0003
3737.00,-0.0003
3736.00,-0.0003
3735.00,-0.0004
3734.00,-0.0004
3733.00,-0.0004
3732.00,-0.0004
3731.00,-0.0005
3730.00,-0.0005
3729.00,-0.0005
3728.00,-0.0005
3727.00,-0.0006
3726.00,-0.0006
3725.00,-0.0007
3724.00,-0.0006
3723.00,-0.0006
3722.00,-0.0006
3721.00,-0.0007
3720.00,-0.0007
3719.00,-0.0007
3718.00,-0.0007
3717.00,-0.0008
3716.00,-0.0008
3715.00,-0.0007
3714.00,-0.0007
3713.00,-0.0006
3712.00,-0.0006
3711.00,-0.0006
3710.00,-0.0006
3709.00,-0.0006
3708.00,-0.0006
3707.00,-0.0007
3706.00,-0.0007
3705.00,-0.0008
3704.00,-0.0008
3703.00,-0.0008
3702.00,-0.0008
3701.00,-0.0008
3700.00,-0.0009
3699.00,-0.0008
3698.00,-0.0008
3697.00,-0.0008
3696.00,-0.0009
3695.00,-0.0009
3694.00,-0.0008
3693.00,-0.0008
3692.00,-0.0008
3691.00,-0.0008
3690.00,-0.0008
3689.00,-0.0007
3688.00,-0.0007
3687.00,-0.0007
3686.00,-0.0007
3685.00,-0.0007
3684.00,-0.0007
3683.00,-0.0007
3682.00,-0.0007
3681.00,-0.0007
3680.00,-0.0007
3679.00,-0.0007
3678.00,-0.0007
3677.00,-0.0006
3676.00,-0.0005
3675.00,-0.0005
3674.00,-0.0005
3673.00,-0.0005
3672.00,-0.0004
3671.00,-0.0004
3670.00,-0.0005
3669.00,-0.0006
3668.00,-0.0006
3667.00,-0.0007
3666.00,-0.0007
3665.00,-0.0007
3664.00,-0.0008
3663.00,-0.0008
3662.00,-0.0008
3661.00,-0.0009
3660.00,-0.0009
3659.00,-0.0008
3658.00,-0.0008
3657.00,-0.0008
3656.00,-0.0007
3655.00,-0.0007
3654.00,-0.0007
3653.00,-0.0006
3652.00,-0.0005
3651.00,-0.0004
3650.00,-0.0004
3649.00,-0.0003
3648.00,-0.0003
3647.00,-0.0003
3646.00,-0.0004
3645.00,-0.0005
3644.00,-0.0006
3643.00,-0.0006
3642.00,-0.0007
3641.00,-0.0008
3640.00,-0.0008
3639.00,-0.0008
3638.00,-0.0008
3637.00,-0.0008
3636.00,-0.0008
3635.00,-0.0008
3634.00,-0.0008
3633.00,-0.0008
3632.00,-0.0007
3631.00,-0.0006
3630.00,-0.0005
3629.00,-0.0005
3628.00,-0.0005
3627.00,-0.0005
3626.00,-0.0005
3625.00,-0.0005
3624.00,-0.0006
3623.00,-0.0007
3622.00,-0.0007
3621.00,-0.0007
3620.00,-0.0007
3619.00,-0.0007
3618.00,-0.0006
3617.00,-0.0006
3616.00,-0.0005
3615.00,-0.0005
3614.00,-0.0005
3613.00,-0.0005
3612.00,-0.0005
3611.00,-0.0005
3610.00,-0.0004
3609.00,-0.0005
3608.00,-0.0005
3607.00,-0.0006
3606.00,-0.0006
3605.00,-0.0007
3604.00,-0.0007
3603.00,-0.0007
3602.00,-0.0007
3601.00,-0.0008
3600.00,-0.0007
3599.00,-0.0007
3598.00,-0.0007
3597.00,-0.0007
3596.00,-0.0007
3595.00,-0.0007
3594.00,-0.0007
3593.00,-0.0007
3592.00,-0.0007
3591.00,-0.0006
3590.00,-0.0006
3589.00,-0.0005
3588.00,-0.0006
3587.00,-0.0006
3586.00,-0.0006
3585.00,-0.0006
3584.00,-0.0006
3583.00,-0.0007
3582.00,-0.0007
3581.00,-0.0008
3580.00,-0.0008
3579.00,-0.0008
3578.00,-0.0008
3577.00,-0.0008
3576.00,-0.0008
3575.00,-0.0008
3574.00,-0.0008
3573.00,-0.0008
3572.00,-0.0008
3571.00,-0.0007
3570.00,-0.0006
3569.00,-0.0005
3568.00,-0.0005
3567.00,-0.0005
3566.00,-0.0006
3565.00,-0.0006
3564.00,-0.0006
3563.00,-0.0006
3562.00,-0.0007
3561.00,-0.0007
3560.00,-0.0008
3559.00,-0.0008
3558.00,-0.0008
3557.00,-0.0008
3556.00,-0.0008
3555.00,-0.0008
3554.00,-0.0008
3553.00,-0.0008
3552.00,-0.0008
3551.00,-0.0008
3550.00,-0.0008
3549.00,-0.0007
3548.00,-0.0007
3547.00,-0.0007
3546.00,-0.0007
3545.00,-0.0007
3544.00,-0.0007
3543.00,-0.0008
3542.00,-0.0008
3541.00,-0.0008
3540.00,-0.0008
3539.00,-0.0008
3538.00,-0.0008
3537.00,-0.0009
3536.00,-0.0009
3535.00,-0.0009
3534.00,-0.0009
3533.00,-0.0008
3532.00,-0.0008
3531.00,-0.0008
3530.00,-0.0008
3529.00,-0.0008
3528.00,-0.0008
3527.00,-0.0008
3526.00,-0.0007
3525.00,-0.0007
3524.00,-0.0008
3523.00,-0.0008
3522.00,-0.0008
3521.00,-0.0008
3520.00,-0.0008
3519.00,-0.0008
3518.00,-0.0008
3517.00,-0.0009
3516.00,-0.0009
3515.00,-0.0009
3514.00,-0.0009
3513.00,-0.0008
3512.00,-0.0008
3511.00,-0.0008
3510.00,-0.0008
3509.00,-0.0009
3508.00,-0.0008
3507.00,-0.0008
3506.00,-0.0008
3505.00,-0.0008
3504.00,-0.0008
3503.00,-0.0008
3502.00,-0.0008
3501.00,-0.0008
3500.00,-0.0008
3499.00,-0.0008
3498.00,-0.0008
3497.00,-0.0009
3496.00,-0.0009
3495.00,-0.0009
3494.00,-0.0009
3493.00,-0.0009
3492.00,-0.0009
3491.00,-0.0009
3490.00,-0.0009
3489.00,-0.0009
3488.00,-0.0009
3487.00,-0.0009
3486.00,-0.0009
3485.00,-0.0009
3484.00,-0.0009
3483.00,-0.0009
3482.00,-0.0009
3481.00,-0.0009
3480.00,-0.0009
3479.00,-0.0009
3478.00,-0.0009
3477.00,-0.0009
3476.00,-0.0009
3475.00,-0.0009
3474.00,-0.0009
3473.00,-0.0009
3472.00,-0.0009
3471.00,-0.0009
3470.00,-0.0009
3469.00,-0.0009
3468.00,-0.0009
3467.00,-0.0009
3466.00,-0.0009
3465.00,-0.0009
3464.00,-0.0009
3463.00,-0.0009
3462.00,-0.0009
3461.00,-0.0009
3460.00,-0.0009
3459.00,-0.0009
3458.00,-0.0009
3457.00,-0.0009
3456.00,-0.0009
3455.00,-0.0009
3454.00,-0.0009
3453.00,-0.0009
3452.00,-0.0009
3451.00,-0.0009
3450.00,-0.0009
3449.00,-0.0009
3448.00,-0.0009
3447.00,-0.0009
3446.00,-0.0009
3445.00,-0.0009
3444.00,-0.0009
3443.00,-0.0009
3442.00,-0.0009
3441.00,-0.0009
3440.00,-0.0009
3439.00,-0.0009
3438.00,-0.0009
3437.00,-0.0009
3436.00,-0.0009
3435.00,-0.0009
3434.00,-0.0009
3433.00,-0.0009
3432.00,-0.0009
3431.00,-0.0009
3430.00,-0.0009
3429.00,-0.0009
3428.00,-0.0009
3427.00,-0.0009
3426.00,-0.0009
3425.00,-0.0009
3424.00,-0.0009
3423.00,-0.0009
3422.00,-0.0009
3421.00,-0.0009
3420.00,-0.0009
3419.00,-0.0009
3418.00,-0.0009
3417.00,-0.0009
3416.00,-0.0009
3415.00,-0.0009
3414.00,-0.0009
3413.00,-0.0009
3412.00,-0.0009
3411.00,-0.0009
3410.00,-0.0009
3409.00,-0.0009
3408.00,-0.0009
3407.00,-0.0009
3406.00,-0.0009
3405.00,-0.0009
3404.00,-0.0009
3403.00,-0.0009
3402.00,-0.0009
3401.00,-0.0009
3400.00,-0.0009
3399.00,-0.0009
3398.00,-0.0009
3397.00,-0.0009
3396.00,-0.0009
3395.00,-0.0009
3394.00,-0.0009
3393.00,-0.0009
3392.00,-0.0009
3391.00,-0.0009
3390.00,-0.0009
3389.00,-0.0009
3388.00,-0.0009
3387.00,-0.0009
3386.00,-0.0009
3385.00,-0.0009
3384.00,-0.0009
3383.00,-0.0009
3382.00,-0.0009
3381.00,-0.0009
3380.00,-0.0009
3379.00,-0.0009
3378.00,-0.0009
3377.00,-0.0009
3376.00,-0.0009
3375.00,-0.0009
3374.00,-0.0009
3373.00,-0.0009
3372.00,-0.0009
3371.00,-0.0009
3370.00,-0.0009
3369.00,-0.0009
3368.00,-0.0009
3367.00,-0.0009
3366.00,-0.0009
3365.00,-0.0009
3364.00,-0.0009
3363.00,-0.0009
3362.00,-0.0009
3361.00,-0.0009
3360.00,-0.0009
3359.00,-0.0009
3358.00,-0.0009
3357.00,-0.0009
3356.00,-0.0009
3355.00,-0.0009
3354.00,-0.0009
3353.00,-0.0009
3352.00,-0.0009
3351.00,-0.0009
3350.00,-0.0009
3349.00,-0.0009
3348.00,-0.0009
3347.00,-0.0009
3346.00,-0.0009
3345.00,-0.0009
3344.00,-0.0009
3343.00,-0.0009
3342.00,-0.0009
3341.00,-0.0009
3340.00,-0.0009
3339.00,-0.0009
3338.00,-0.0009
3337.00,-0.0009
3336.00,-0.0009
3335.00,-0.0009
3334.00,-0.0009
3333.00,-0.0009
3332.00,-0.0009
3331.00,-0.0009
3330.00,-0.0009
3329.00,-0.0009
3328.00,-0.0009
3327.00,-0.0009
3326.00,-0.0009
3325.00,-0.0009
3324.00,-0.0009
3323.00,-0.0010
3322.00,-0.0010
3321.00,-0.0010
3320.00,-0.0010
3319.00,-0.0010
3318.00,-0.0009
3317.00,-0.0009
3316.00,-0.0009
3315.00,-0.0009
3314.00,-0.0009
3313.00,-0.0010
3312.00,-0.0010
3311.00,-0.0010
3310.00,-0.0009
3309.00,-0.0009
3308.00,-0.0009
3307.00,-0.0009
3306.00,-0.0009
3305.00,-0.0009
3304.00,-0.0009
3303.00,-0.0009
3302.00,-0.0009
3301.00,-0.0009
3300.00,-0.0009
3299.00,-0.0009
3298.00,-0.0009
3297.00,-0.0009
3296.00,-0.0009
3295.00,-0.0009
3294.00,-0.0009
3293.00,-0.0009
3292.00,-0.0009
3291.00,-0.0009
3290.00,-0.0009
3289.00,-0.0009
3288.00,-0.0009
3287.00,-0.0009
3286.00,-0.0009
3285.00,-0.0010
3284.00,-0.0010
3283.00,-0.0010
3282.00,-0.0010
3281.00,-0.0010
3280.00,-0.0010
3279.00,-0.0010
3278.00,-0.0009
3277.00,-0.0009
3276.00,-0.0009
3275.00,-0.0009
3274.00,-0.0009
3273.00,-0.0009
3272.00,-0.0009
3271.00,-0.0010
3270.00,-0.0010
3269.00,-0.0010
3268.00,-0.0010
3267.00,-0.0010
3266.00,-0.0010
3265.00,-0.0010
3264.00,-0.0009
3263.00,-0.0009
3262.00,-0.0009
3261.00,-0.0009
3260.00,-0.0009
3259.00,-0.0009
3258.00,-0.0009
3257.00,-0.0009
3256.00,-0.0009
3255.00,-0.0009
3254.00,-0.0009
3253.00,-0.0009
3252.00,-0.0009
3251.00,-0.0010
3250.00,-0.0010
3249.00,-0.0010
3248.00,-0.0010
3247.00,-0.0010
3246.00,-0.0010
3245.00,-0.0009
3244.00,-0.0009
3243.00,-0.0009
3242.00,-0.0009
3241.00,-0.0009
3240.00,-0.0010
3239.00,-0.0010
3238.00,-0.0010
3237.00,-0.0010
3236.00,-0.0010
3235.00,-0.0010
3234.00,-0.0010
3233.00,-0.0010
3232.00,-0.0010
3231.00,-0.0010
3230.00,-0.0010
3229.00,-0.0009
3228.00,-0.0009
3227.00,-0.0009
3226.00,-0.0009
3225.00,-0.0009
3224.00,-0.0010
3223.00,-0.0010
3222.00,-0.0010
3221.00,-0.0010
3220.00,-0.0010
3219.00,-0.0010
3218.00,-0.0010
3217.00,-0.0010
3216.00,-0.0010
3215.00,-0.0010
3214.00,-0.0010
3213.00,-0.0010
3212.00,-0.0010
3211.00,-0.0010
3210.00,-0.0010
3209.00,-0.0010
3208.00,-0.0010
3207.00,-0.0010
3206.00,-0.0010
3205.00,-0.0010
3204.00,-0.0010
3203.00,-0.0010
3202.00,-0.0010
3201.00,-0.0010
3200.00,-0.0010
3199.00,-0.0010
3198.00,-0.0010
3197.00,-0.0010
3196.00,-0.0010
3195.00,-0.0010
3194.00,-0.0010
3193.00,-0.0010
3192.00,-0.0010
3191.00,-0.0010
3190.00,-0.0010
3189.00,-0.0010
3188.00,-0.0010
3187.00,-0.0010
3186.00,-0.0010
3185.00,-0.0010
3184.00,-0.0010
3183.00,-0.0010
3182.00,-0.0010
3181.00,-0.0010
3180.00,-0.0010
3179.00,-0.0010
3178.00,-0.0009
3177.00,-0.0009
3176.00,-0.0009
3175.00,-0.0009
3174.00,-0.0010
3173.00,-0.0010
3172.00,-0.0010
3171.00,-0.0010
3170.00,-0.0010
3169.00,-0.0010
3168.00,-0.0010
3167.00,-0.0010
3166.00,-0.0010
3165.00,-0.0010
3164.00,-0.0010
3163.00,-0.0010
3162.00,-0.0010
3161.00,-0.0010
3160.00,-0.0010
3159.00,-0.0010
3158.00,-0.0010
3157.00,-0.0010
3156.00,-0.0010
3155.00,-0.0010
3154.00,-0.0010
3153.00,-0.0010
3152.00,-0.0010
3151.00,-0.0010
3150.00,-0.0010
3149.00,-0.0010
3148.00,-0.0009
3147.00,-0.0010
3146.00,-0.0010
3145.00,-0.0010
3144.00,-0.0010
3143.00,-0.0010
3142.00,-0.0010
3141.00,-0.0010
3140.00,-0.0010
3139.00,-0.0010
3138.00,-0.0010
3137.00,-0.0010
3136.00,-0.0010
3135.00,-0.0010
3134.00,-0.0010
3133.00,-0.0010
3132.00,-0.0010
3131.00,-0.0010
3130.00,-0.0010
3129.00,-0.0010
3128.00,-0.0010
3127.00,-0.0010
3126.00,-0.0010
3125.00,-0.0009
3124.00,-0.0009
3123.00,-0.0009
3122.00,-0.0009
3121.00,-0.0009
3120.00,-0.0010
3119.00,-0.0010
3118.00,-0.0009
3117.00,-0.0009
3116.00,-0.0009
3115.00,-0.0009
3114.00,-0.0009
3113.00,-0.0009
3112.00,-0.0009
3111.00,-0.0009
3110.00,-0.0009
3109.00,-0.0010
3108.00,-0.0010
3107.00,-0.0010
3106.00,-0.0010
3105.00,-0.0010
3104.00,-0.0010
3103.00,-0.0010
3102.00,-0.0010
3101.00,-0.0009
3100.00,-0.0009
3099.00,-0.0009
3098.00,-0.0010
3097.00,-0.0010
3096.00,-0.0009
3095.00,-0.0009
3094.00,-0.0009
3093.00,-0.0009
3092.00,-0.0009
3091.00,-0.0009
3090.00,-0.0009
3089.00,-0.0009
3088.00,-0.0010
3087.00,-0.0010
3086.00,-0.0010
3085.00,-0.0010
3084.00,-0.0010
3083.00,-0.0010
3082.00,-0.0010
3081.00,-0.0009
3080.00,-0.0009
3079.00,-0.0009
3078.00,-0.0009
3077.00,-0.0009
3076.00,-0.0010
3075.00,-0.0010
3074.00,-0.0010
3073.00,-0.0010
3072.00,-0.0010
3071.00,-0.0009
3070.00,-0.0009
3069.00,-0.0009
3068.00,-0.0009
3067.00,-0.0009
3066.00,-0.0009
3065.00,-0.0009
3064.00,-0.0009
3063.00,-0.0010
3062.00,-0.0010
3061.00,-0.0010
3060.00,-0.0010
3059.00,-0.0010
3058.00,-0.0010
3057.00,-0.0010
3056.00,-0.0010
3055.00,-0.0009
3054.00,-0.0009
3053.00,-0.0009
3052.00,-0.0009
3051.00,-0.0009
3050.00,-0.0009
3049.00,-0.0009
3048.00,-0.0009
3047.00,-0.0009
3046.00,-0.0009
3045.00,-0.0009
3044.00,-0.0009
3043.00,-0.0009
3042.00,-0.0009
3041.00,-0.0009
3040.00,-0.0009
3039.00,-0.0009
3038.00,-0.0009
3037.00,-0.0009
3036.00,-0.0009
3035.00,-0.0009
3034.00,-0.0009
3033.00,-0.0009
3032.00,-0.0009
3031.00,-0.0009
3030.00,-0.0009
3029.00,-0.0009
3028.00,-0.0009
3027.00,-0.0009
3026.00,-0.0009
3025.00,-0.0009
3024.00,-0.0009
3023.00,-0.0009
3022.00,-0.0009
3021.00,-0.0009
3020.00,-0.0009
3019.00,-0.0009
3018.00,-0.0009
3017.00,-0.0009
3016.00,-0.0009
3015.00,-0.0009
3014.00,-0.0009
3013.00,-0.0009
3012.00,-0.0009
3011.00,-0.0009
3010.00,-0.0009
3009.00,-0.0009
3008.00,-0.0009
3007.00,-0.0009
3006.00,-0.0009
3005.00,-0.0009
3004.00,-0.0009
3003.00,-0.0009
3002.00,-0.0009
3001.00,-0.0009
3000.00,-0.0009
2999.00,-0.0009
2998.00,-0.0009
2997.00,-0.0009
2996.00,-0.0009
2995.00,-0.0009
2994.00,-0.0009
2993.00,-0.0009
2992.00,-0.0009
2991.00,-0.0009
2990.00,-0.0009
2989.00,-0.0009
2988.00,-0.0009
2987.00,-0.0009
2986.00,-0.0009
2985.00,-0.0009
2984.00,-0.0009
2983.00,-0.0009
2982.00,-0.0009
2981.00,-0.0009
2980.00,-0.0009
2979.00,-0.0009
2978.00,-0.0009
2977.00,-0.0009
2976.00,-0.0009
2975.00,-0.0009
2974.00,-0.0009
2973.00,-0.0009
2972.00,-0.0009
2971.00,-0.0009
2970.00,-0.0009
2969.00,-0.0009
2968.00,-0.0009
2967.00,-0.0009
2966.00,-0.0009
2965.00,-0.0009
2964.00,-0.0009
2963.00,-0.0009
2962.00,-0.0009
2961.00,-0.0009
2960.00,-0.0009
2959.00,-0.0009
2958.00,-0.0009
2957.00,-0.0009
2956.00,-0.0009
2955.00,-0.0009
2954.00,-0.0009
2953.00,-0.0009
2952.00,-0.0009
2951.00,-0.0009
2950.00,-0.0009
2949.00,-0.0009
2948.00,-0.0009
2947.00,-0.0009
2946.00,-0.0009
2945.00,-0.0009
2944.00,-0.0009
2943.00,-0.0009
2942.00,-0.0009
2941.00,-0.0009
2940.00,-0.0009
2939.00,-0.0009
2938.00,-0.0009
2937.00,-0.0009
2936.00,-0.0009
2935.00,-0.0009
2934.00,-0.0009
2933.00,-0.0009
2932.00,-0.0009
2931.00,-0.0009
2930.00,-0.0009
2929.00,-0.0009
2928.00,-0.0009
2927.00,-0.0009
2926.00,-0.0009
2925.00,-0.0009
2924.00,-0.0010
2923.00,-0.0010
2922.00,-0.0010
2921.00,-0.0010
2920.00,-0.0010
2919.00,-0.0010
2918.00,-0.0009
2917.00,-0.0009
2916.00,-0.0010
2915.00,-0.0010
2914.00,-0.0010
2913.00,-0.0009
2912.00,-0.0009
2911.00,-0.0009
2910.00,-0.0009
2909.00,-0.0009
2908.00,-0.0009
2907.00,-0.0009
2906.00,-0.0009
2905.00,-0.0009
2904.00,-0.0009
2903.00,-0.0009
2902.00,-0.0009
2901.00,-0.0009
2900.00,-0.0009
2899.00,-0.0009
2898.00,-0.0009
2897.00,-0.0009
2896.00,-0.0009
2895.00,-0.0009
2894.00,-0.0009
2893.00,-0.0009
2892.00,-0.0009
2891.00,-0.0009
2890.00,-0.0009
2889.00,-0.0009
2888.00,-0.0009
2887.00,-0.0009
2886.00,-0.0009
2885.00,-0.0009
2884.00,-0.0009
2883.00,-0.0009
2882.00,-0.0009
2881.00,-0.0009
2880.00,-0.0009
2879.00,-0.0009
2878.00,-0.0009
2877.00,-0.0009
2876.00,-0.0009
2875.00,-0.0009
2874.00,-0.0009
2873.00,-0.0009
2872.00,-0.0009
2871.00,-0.0009
2870.00,-0.0009
2869.00,-0.0009
2868.00,-0.0009
2867.00,-0.0009
2866.00,-0.0009
2865.00,-0.0009
2864.00,-0.0009
2863.00,-0.0009
2862.00,-0.0009
2861.00,-0.0009
2860.00,-0.0009
2859.00,-0.0009
2858.00,-0.0009
2857.00,-0.0009
2856.00,-0.0010
2855.00,-0.0010
2854.00,-0.0010
2853.00,-0.0010
2852.00,-0.0010
2851.00,-0.0010
2850.00,-0.0010
2849.00,-0.0010
2848.00,-0.0010
2847.00,-0.0010
2846.00,-0.0010
2845.00,-0.0010
2844.00,-0.0010
2843.00,-0.0010
2842.00,-0.0009
2841.00,-0.0009
2840.00,-0.0009
2839.00,-0.0009
2838.00,-0.0009
2837.00,-0.0009
2836.00,-0.0009
2835.00,-0.0009
2834.00,-0.0009
2833.00,-0.0009
2832.00,-0.0009
2831.00,-0.0009
2830.00,-0.0009
2829.00,-0.0009
2828.00,-0.0009
2827.00,-0.0009
2826.00,-0.0009
2825.00,-0.0009
2824.00,-0.0009
2823.00,-0.0009
2822.00,-0.0009
2821.00,-0.0009
2820.00,-0.0009
2819.00,-0.0009
2818.00,-0.0009
2817.00,-0.0009
2816.00,-0.0009
2815.00,-0.0009
2814.00,-0.0009
2813.00,-0.0009
2812.00,-0.0009
2811.00,-0.0009
2810.00,-0.0009
2809.00,-0.0009
2808.00,-0.0009
2807.00,-0.0009
2806.00,-0.0009
2805.00,-0.0009
2804.00,-0.0009
2803.00,-0.0009
2802.00,-0.0009
2801.00,-0.0009
2800.00,-0.0009
2799.00,-0.0009
2798.00,-0.0009
2797.00,-0.0009
2796.00,-0.0009
2795.00,-0.0009
2794.00,-0.0009
2793.00,-0.0009
2792.00,-0.0009
2791.00,-0.0009
2790.00,-0.0009
2789.00,-0.0009
2788.00,-0.0009
2787.00,-0.0009
2786.00,-0.0009
2785.00,-0.0009
2784.00,-0.0009
2783.00,-0.0009
2782.00,-0.0009
2781.00,-0.0009
2780.00,-0.0009
2779.00,-0.0009
2778.00,-0.0009
2777.00,-0.0009
2776.00,-0.0009
2775.00,-0.0009
2774.00,-0.0009
2773.00,-0.0009
2772.00,-0.0009
2771.00,-0.0009
2770.00,-0.0009
2769.00,-0.0009
2768.00,-0.0009
2767.00,-0.0009
2766.00,-0.0009
2765.00,-0.0009
2764.00,-0.0009
2763.00,-0.0009
2762.00,-0.0009
2761.00,-0.0009
2760.00,-0.0009
2759.00,-0.0009
2758.00,-0.0009
2757.00,-0.0009
2756.00,-0.0009
2755.00,-0.0009
2754.00,-0.0009
2753.00,-0.0009
2752.00,-0.0009
2751.00,-0.0009
2750.00,-0.0009
2749.00,-0.0009
2748.00,-0.0009
2747.00,-0.0009
2746.00,-0.0009
2745.00,-0.0009
2744.00,-0.0009
2743.00,-0.0009
2742.00,-0.0009
2741.00,-0.0009
2740.00,-0.0009
2739.00,-0.0009
2738.00,-0.0009
2737.00,-0.0009
2736.00,-0.0009
2735.00,-0.0009
2734.00,-0.0009
2733.00,-0.0009
2732.00,-0.0009
2731.00,-0.0009
2730.00,-0.0009
2729.00,-0.0009
2728.00,-0.0009
2727.00,-0.0009
2726.00,-0.0009
2725.00,-0.0009
2724.00,-0.0009
2723.00,-0.0009
2722.00,-0.0009
2721.00,-0.0009
2720.00,-0.0009
2719.00,-0.0009
2718.00,-0.0009
2717.00,-0.0009
2716.00,-0.0009
2715.00,-0.0009
2714.00,-0.0009
2713.00,-0.0009
2712.00,-0.0009
2711.00,-0.0009
2710.00,-0.0009
2709.00,-0.0009
2708.00,-0.0009
2707.00,-0.0009
2706.00,-0.0009
2705.00,-0.0009
2704.00,-0.0009
2703.00,-0.0009
2702.00,-0.0009
2701.00,-0.0009
2700.00,-0.0009
2699.00,-0.0009
2698.00,-0.0009
2697.00,-0.0009
2696.00,-0.0009
2695.00,-0.0009
2694.00,-0.0009
2693.00,-0.0009
2692.00,-0.0009
2691.00,-0.0009
2690.00,-0.0009
2689.00,-0.0009
2688.00,-0.0009
2687.00,-0.0009
2686.00,-0.0009
2685.00,-0.0009
2684.00,-0.0009
2683.00,-0.0009
2682.00,-0.0009
2681.00,-0.0009
2680.00,-0.0009
2679.00,-0.0009
2678.00,-0.0009
2677.00,-0.0009
2676.00,-0.0009
2675.00,-0.0009
2674.00,-0.0009
2673.00,-0.0009
2672.00,-0.0009
2671.00,-0.0009
2670.00,-0.0009
2669.00,-0.0009
2668.00,-0.0009
2667.00,-0.0009
2666.00,-0.0009
2665.00,-0.0009
2664.00,-0.0009
2663.00,-0.0009
2662.00,-0.0009
2661.00,-0.0009
2660.00,-0.0009
2659.00,-0.0009
2658.00,-0.0009
2657.00,-0.0009
2656.00,-0.0009
2655.00,-0.0009
2654.00,-0.0009
2653.00,-0.0009
2652.00,-0.0009
2651.00,-0.0009
2650.00,-0.0009
2649.00,-0.0009
2648.00,-0.0009
2647.00,-0.0009
2646.00,-0.0009
2645.00,-0.0009
2644.00,-0.0009
2643.00,-0.0009
2642.00,-0.0009
2641.00,-0.0009
2640.00,-0.0009
2639.00,-0.0009
2638.00,-0.0009
2637.00,-0.0009
2636.00,-0.0009
2635.00,-0.0009
2634.00,-0.0009
2633.00,-0.0009
2632.00,-0.0009
2631.00,-0.0009
2630.00,-0.0009
2629.00,-0.0009
2628.00,-0.0009
2627.00,-0.0009
2626.00,-0.0009
2625.00,-0.0009
2624.00,-0.0009
2623.00,-0.0009
2622.00,-0.0009
2621.00,-0.0009
2620.00,-0.0009
2619.00,-0.0009
2618.00,-0.0009
2617.00,-0.0009
2616.00,-0.0009
2615.00,-0.0009
2614.00,-0.0009
2613.00,-0.0009
2612.00,-0.0009
2611.00,-0.0009
2610.00,-0.0009
2609.00,-0.0009
2608.00,-0.0009
2607.00,-0.0009
2606.00,-0.0009
2605.00,-0.0009
2604.00,-0.0009
2603.00,-0.0009
2602.00,-0.0009
2601.00,-0.0009
2600.00,-0.0009
2599.00,-0.0009
2598.00,-0.0009
2597.00,-0.0009
2596.00,-0.0009
2595.00,-0.0009
2594.00,-0.0009
2593.00,-0.0009
2592.00,-0.0009
2591.00,-0.0009
2590.00,-0.0009
2589.00,-0.0009
2588.00,-0.0009
2587.00,-0.0009
2586.00,-0.0009
2585.00,-0.0009
2584.00,-0.0009
2583.00,-0.0009
2582.00,-0.0009
2581.00,-0.0009
2580.00,-0.0009
2579.00,-0.0009
2578.00,-0.0009
2577.00,-0.0009
2576.00,-0.0009
2575.00,-0.0009
2574.00,-0.0009
2573.00,-0.0009
2572.00,-0.0009
2571.00,-0.0009
2570.00,-0.0009
2569.00,-0.0009
2568.00,-0.0009
2567.00,-0.0009
2566.00,-0.0009
2565.00,-0.0009
2564.00,-0.0009
2563.00,-0.0009
2562.00,-0.0009
2561.00,-0.0009
2560.00,-0.0009
2559.00,-0.0009
2558.00,-0.0009
2557.00,-0.0009
2556.00,-0.0009
2555.00,-0.0009
2554.00,-0.0009
2553.00,-0.0009
2552.00,-0.0009
2551.00,-0.0009
2550.00,-0.0009
2549.00,-0.0009
2548.00,-0.0009
2547.00,-0.0009
2546.00,-0.0009
2545.00,-0.0009
2544.00,-0.0009
2543.00,-0.0009
2542.00,-0.0009
2541.00,-0.0009
2540.00,-0.0009
2539.00,-0.0009
2538.00,-0.0009
2537.00,-0.0009
2536.00,-0.0009
2535.00,-0.0009
2534.00,-0.0009
2533.00,-0.0009
2532.00,-0.0009
2531.00,-0.0009
2530.00,-0.0009
2529.00,-0.0009
2528.00,-0.0009
2527.00,-0.0009
2526.00,-0.0009
2525.00,-0.0009
2524.00,-0.0009
2523.00,-0.0009
2522.00,-0.0009
2521.00,-0.0009
2520.00,-0.0009
2519.00,-0.0009
2518.00,-0.0009
2517.00,-0.0009
2516.00,-0.0009
2515.00,-0.0009
2514.00,-0.0009
2513.00,-0.0009
2512.00,-0.0009
2511.00,-0.0009
2510.00,-0.0009
2509.00,-0.0009
2508.00,-0.0009
2507.00,-0.0009
2506.00,-0.0009
2505.00,-0.0009
2504.00,-0.0009
2503.00,-0.0009
2502.00,-0.0009
2501.00,-0.0009
2500.00,-0.0009
2499.00,-0.0009
2498.00,-0.0009
2497.00,-0.0009
2496.00,-0.0009
2495.00,-0.0009
2494.00,-0.0009
2493.00,-0.0009
2492.00,-0.0009
2491.00,-0.0009
2490.00,-0.0009
2489.00,-0.0009
2488.00,-0.0009
2487.00,-0.0009
2486.00,-0.0009
2485.00,-0.0009
2484.00,-0.0009
2483.00,-0.0009
2482.00,-0.0009
2481.00,-0.0009
2480.00,-0.0009
2479.00,-0.0009
2478.00,-0.0009
2477.00,-0.0009
2476.00,-0.0009
2475.00,-0.0009
2474.00,-0.0009
2473.00,-0.0009
2472.00,-0.0009
2471.00,-0.0009
2470.00,-0.0009
2469.00,-0.0009
2468.00,-0.0009
2467.00,-0.0009
2466.00,-0.0009
2465.00,-0.0009
2464.00,-0.0009
2463.00,-0.0009
2462.00,-0.0009
2461.00,-0.0009
2460.00,-0.0009
2459.00,-0.0009
2458.00,-0.0009
2457.00,-0.0009
2456.00,-0.0009
2455.00,-0.0009
2454.00,-0.0009
2453.00,-0.0009
2452.00,-0.0009
2451.00,-0.0009
2450.00,-0.0009
2449.00,-0.0009
2448.00,-0.0009
2447.00,-0.0009
2446.00,-0.0009
2445.00,-0.0009
2444.00,-0.0009
2443.00,-0.0009
2442.00,-0.0009
2441.00,-0.0009
2440.00,-0.0009
2439.00,-0.0009
2438.00,-0.0009
2437.00,-0.0009
2436.00,-0.0009
2435.00,-0.0009
2434.00,-0.0009
2433.00,-0.0009
2432.00,-0.0009
2431.00,-0.0009
2430.00,-0.0009
2429.00,-0.0009
2428.00,-0.0009
2427.00,-0.0009
2426.00,-0.0009
2425.00,-0.0009
2424.00,-0.0009
2423.00,-0.0009
2422.00,-0.0009
2421.00,-0.0009
2420.00,-0.0009
2419.00,-0.0009
2418.00,-0.0009
2417.00,-0.0009
2416.00,-0.0009
2415.00,-0.0009
2414.00,-0.0009
2413.00,-0.0009
2412.00,-0.0009
2411.00,-0.0009
2410.00,-0.0009
2409.00,-0.0009
2408.00,-0.0009
2407.00,-0.0009
2406.00,-0.0009
2405.00,-0.0009
2404.00,-0.0009
2403.00,-0.0009
2402.00,-0.0009
2401.00,-0.0009
2400.00,-0.0009
2399.00,-0.0009
2398.00,-0.0009
2397.00,-0.0009
2396.00,-0.0009
2395.00,-0.0009
2394.00,-0.0009
2393.00,-0.0009
2392.00,-0.0009
2391.00,-0.0009
2390.00,-0.0009
2389.00,-0.0009
2388.00,-0.0008
2387.00,-0.0008
2386.00,-0.0008
2385.00,-0.0008
2384.00,-0.0008
2383.00,-0.0008
2382.00,-0.0008
2381.00,-0.0008
2380.00,-0.0008
2379.00,-0.0008
2378.00,-0.0009
2377.00,-0.0009
2376.00,-0.0009
2375.00,-0.0009
2374.00,-0.0008
2373.00,-0.0008
2372.00,-0.0008
2371.00,-0.0008
2370.00,-0.0008
2369.00,-0.0008
2368.00,-0.0008
2367.00,-0.0008
2366.00,-0.0008
2365.00,-0.0008
2364.00,-0.0008
2363.00,-0.0008
2362.00,-0.0008
2361.00,-0.0008
2360.00,-0.0008
2359.00,-0.0008
2358.00,-0.0008
2357.00,-0.0007
2356.00,-0.0007
2355.00,-0.0007
2354.00,-0.0007
2353.00,-0.0008
2352.00,-0.0008
2351.00,-0.0008
2350.00,-0.0008
2349.00,-0.0007
2348.00,-0.0006
2347.00,-0.0006
2346.00,-0.0007
2345.00,-0.0007
2344.00,-0.0007
2343.00,-0.0007
2342.00,-0.0007
2341.00,-0.0007
2340.00,-0.0007
2339.00,-0.0007
2338.00,-0.0007
2337.00,-0.0007
2336.00,-0.0007
2335.00,-0.0007
2334.00,-0.0007
2333.00,-0.0007
2332.00,-0.0007
2331.00,-0.0007
2330.00,-0.0007
2329.00,-0.0007
2328.00,-0.0007
2327.00,-0.0007
2326.00,-0.0007
2325.00,-0.0007
2324.00,-0.0007
2323.00,-0.0007
2322.00,-0.0007
2321.00,-0.0007
2320.00,-0.0007
2319.00,-0.0007
2318.00,-0.0007
2317.00,-0.0007
2316.00,-0.0007
2315.00,-0.0007
2314.00,-0.0007
2313.00,-0.0007
2312.00,-0.0007
2311.00,-0.0007
2310.00,-0.0007
2309.00,-0.0007
2308.00,-0.0007
2307.00,-0.0007
2306.00,-0.0007
2305.00,-0.0007
2304.00,-0.0008
2303.00,-0.0008
2302.00,-0.0008
2301.00,-0.0008
2300.00,-0.0008
2299.00,-0.0008
2298.00,-0.0008
2297.00,-0.0008
2296.00,-0.0008
2295.00,-0.0008
2294.00,-0.0008
2293.00,-0.0008
2292.00,-0.0008
2291.00,-0.0008
2290.00,-0.0008
2289.00,-0.0008
2288.00,-0.0008
2287.00,-0.0008
2286.00,-0.0008
2285.00,-0.0008
2284.00,-0.0008
2283.00,-0.0008
2282.00,-0.0008
2281.00,-0.0008
2280.00,-0.0008
2279.00,-0.0008
2278.00,-0.0008
2277.00,-0.0009
2276.00,-0.0009
2275.00,-0.0009
2274.00,-0.0009
2273.00,-0.0009
2272.00,-0.0009
2271.00,-0.0009
2270.00,-0.0009
2269.00,-0.0009
2268.00,-0.0009
2267.00,-0.0009
2266.00,-0.0009
2265.00,-0.0009
2264.00,-0.0009
2263.00,-0.0009
2262.00,-0.0009
2261.00,-0.0009
2260.00,-0.0009
2259.00,-0.0009
2258.00,-0.0009
2257.00,-0.0008
2256.00,-0.0008
2255.00,-0.0009
2254.00,-0.0009
2253.00,-0.0009
2252.00,-0.0009
2251.00,-0.0009
2250.00,-0.0009
2249.00,-0.0009
2248.00,-0.0009
2247.00,-0.0009
2246.00,-0.0008
2245.00,-0.0008
2244.00,-0.0008
2243.00,-0.0008
2242.00,-0.0008
2241.00,-0.0008
2240.00,-0.0008
2239.00,-0.0009
2238.00,-0.0009
2237.00,-0.0009
2236.00,-0.0009
2235.00,-0.0009
2234.00,-0.0009
2233.00,-0.0009
2232.00,-0.0009
2231.00,-0.0008
2230.00,-0.0008
2229.00,-0.0009
2228.00,-0.0009
2227.00,-0.0009
2226.00,-0.0009
2225.00,-0.0009
2224.00,-0.0009
2223.00,-0.0009
2222.00,-0.0009
2221.00,-0.0009
2220.00,-0.0009
2219.00,-0.0009
2218.00,-0.0008
2217.00,-0.0008
2216.00,-0.0008
2215.00,-0.0008
2214.00,-0.0008
2213.00,-0.0008
2212.00,-0.0008
2211.00,-0.0008
2210.00,-0.0008
2209.00,-0.0009
2208.00,-0.0009
2207.00,-0.0009
2206.00,-0.0008
2205.00,-0.0008
2204.00,-0.0008
2203.00,-0.0008
2202.00,-0.0009
2201.00,-0.0009
2200.00,-0.0009
2199.00,-0.0009
2198.00,-0.0009
2197.00,-0.0009
2196.00,-0.0009
2195.00,-0.0009
2194.00,-0.0009
2193.00,-0.0009
2192.00,-0.0009
2191.00,-0.0008
2190.00,-0.0008
2189.00,-0.0008
2188.00,-0.0008
2187.00,-0.0008
2186.00,-0.0008
2185.00,-0.0008
2184.00,-0.0008
2183.00,-0.0008
2182.00,-0.0008
2181.00,-0.0008
2180.00,-0.0008
2179.00,-0.0008
2178.00,-0.0008
2177.00,-0.0008
2176.00,-0.0008
2175.00,-0.0008
2174.00,-0.0008
2173.00,-0.0009
2172.00,-0.0009
2171.00,-0.0009
2170.00,-0.0009
2169.00,-0.0008
2168.00,-0.0008
2167.00,-0.0008
2166.00,-0.0008
2165.00,-0.0009
2164.00,-0.0009
2163.00,-0.0009
2162.00,-0.0009
2161.00,-0.0009
2160.00,-0.0008
2159.00,-0.0008
2158.00,-0.0008
2157.00,-0.0008
2156.00,-0.0008
2155.00,-0.0008
2154.00,-0.0008
2153.00,-0.0008
2152.00,-0.0008
2151.00,-0.0008
2150.00,-0.0008
2149.00,-0.0008
2148.00,-0.0008
2147.00,-0.0008
2146.00,-0.0008
2145.00,-0.0008
2144.00,-0.0008
2143.00,-0.0008
2142.00,-0.0009
2141.00,-0.0009
2140.00,-0.0009
2139.00,-0.0008
2138.00,-0.0008
2137.00,-0.0008
2136.00,-0.0009
2135.00,-0.0008
2134.00,-0.0008
2133.00,-0.0008
2132.00,-0.0008
2131.00,-0.0009
2130.00,-0.0009
2129.00,-0.0008
2128.00,-0.0008
2127.00,-0.0008
2126.00,-0.0008
2125.00,-0.0008
2124.00,-0.0009
2123.00,-0.0008
2122.00,-0.0008
2121.00,-0.0008
2120.00,-0.0008
2119.00,-0.0008
2118.00,-0.0008
2117.00,-0.0008
2116.00,-0.0008
2115.00,-0.0008
2114.00,-0.0008
2113.00,-0.0008
2112.00,-0.0008
2111.00,-0.0008
2110.00,-0.0009
2109.00,-0.0009
2108.00,-0.0009
2107.00,-0.0009
2106.00,-0.0009
2105.00,-0.0009
2104.00,-0.0009
2103.00,-0.0009
2102.00,-0.0008
2101.00,-0.0008
2100.00,-0.0008
2099.00,-0.0008
2098.00,-0.0008
2097.00,-0.0008
2096.00,-0.0009
2095.00,-0.0008
2094.00,-0.0008
2093.00,-0.0008
2092.00,-0.0008
2091.00,-0.0008
2090.00,-0.0008
2089.00,-0.0008
2088.00,-0.0009
2087.00,-0.0008
2086.00,-0.0008
2085.00,-0.0008
2084.00,-0.0008
2083.00,-0.0008
2082.00,-0.0008
2081.00,-0.0008
2080.00,-0.0008
2079.00,-0.0008
2078.00,-0.0008
2077.00,-0.0008
2076.00,-0.0008
2075.00,-0.0009
2074.00,-0.0009
2073.00,-0.0009
2072.00,-0.0009
2071.00,-0.0009
2070.00,-0.0008
2069.00,-0.0009
2068.00,-0.0009
2067.00,-0.0009
2066.00,-0.0009
2065.00,-0.0009
2064.00,-0.0009
2063.00,-0.0009
2062.00,-0.0008
2061.00,-0.0008
2060.00,-0.0008
2059.00,-0.0008
2058.00,-0.0008
2057.00,-0.0008
2056.00,-0.0008
2055.00,-0.0008
2054.00,-0.0009
2053.00,-0.0009
2052.00,-0.0009
2051.00,-0.0009
2050.00,-0.0009
2049.00,-0.0009
2048.00,-0.0008
2047.00,-0.0008
2046.00,-0.0008
2045.00,-0.0008
2044.00,-0.0009
2043.00,-0.0009
2042.00,-0.0009
2041.00,-0.0009
2040.00,-0.0009
2039.00,-0.0009
2038.00,-0.0009
2037.00,-0.0009
2036.00,-0.0008
2035.00,-0.0008
2034.00,-0.0008
2033.00,-0.0008
2032.00,-0.0008
2031.00,-0.0008
2030.00,-0.0008
2029.00,-0.0008
2028.00,-0.0008
2027.00,-0.0008
2026.00,-0.0008
2025.00,-0.0008
2024.00,-0.0008
2023.00,-0.0008
2022.00,-0.0008
2021.00,-0.0008
2020.00,-0.0008
2019.00,-0.0008
2018.00,-0.0008
2017.00,-0.0009
2016.00,-0.0008
2015.00,-0.0008
2014.00,-0.0008
2013.00,-0.0008
2012.00,-0.0008
2011.00,-0.0008
2010.00,-0.0008
2009.00,-0.0008
2008.00,-0.0008
2007.00,-0.0008
2006.00,-0.0008
2005.00,-0.0008
2004.00,-0.0008
2003.00,-0.0008
2002.00,-0.0008
2001.00,-0.0008
2000.00,-0.0008
1999.00,-0.0008
1998.00,-0.0008
1997.00,-0.0008
1996.00,-0.0008
1995.00,-0.0008
1994.00,-0.0008
1993.00,-0.0008
1992.00,-0.0008
1991.00,-0.0008
1990.00,-0.0008
1989.00,-0.0008
1988.00,-0.0008
1987.00,-0.0008
1986.00,-0.0008
1985.00,-0.0008
1984.00,-0.0009
1983.00,-0.0009
1982.00,-0.0009
1981.00,-0.0008
1980.00,-0.0008
1979.00,-0.0008
1978.00,-0.0008
1977.00,-0.0008
1976.00,-0.0008
1975.00,-0.0008
1974.00,-0.0008
1973.00,-0.0008
1972.00,-0.0008
1971.00,-0.0008
1970.00,-0.0008
1969.00,-0.0008
1968.00,-0.0009
1967.00,-0.0009
1966.00,-0.0009
1965.00,-0.0008
1964.00,-0.0008
1963.00,-0.0008
1962.00,-0.0008
1961.00,-0.0008
1960.00,-0.0008
1959.00,-0.0008
1958.00,-0.0008
1957.00,-0.0008
1956.00,-0.0008
1955.00,-0.0008
1954.00,-0.0008
1953.00,-0.0008
1952.00,-0.0008
1951.00,-0.0008
1950.00,-0.0008
1949.00,-0.0008
1948.00,-0.0008
1947.00,-0.0008
1946.00,-0.0008
1945.00,-0.0008
1944.00,-0.0008
1943.00,-0.0009
1942.00,-0.0009
1941.00,-0.0008
1940.00,-0.0008
1939.00,-0.0008
1938.00,-0.0008
1937.00,-0.0008
1936.00,-0.0008
1935.00,-0.0008
1934.00,-0.0009
1933.00,-0.0009
1932.00,-0.0009
1931.00,-0.0008
1930.00,-0.0008
1929.00,-0.0008
1928.00,-0.0008
1927.00,-0.0008
1926.00,-0.0008
1925.00,-0.0009
1924.00,-0.0009
1923.00,-0.0009
1922.00,-0.0008
1921.00,-0.0008
1920.00,-0.0008
1919.00,-0.0008
1918.00,-0.0008
1917.00,-0.0008
1916.00,-0.0008
1915.00,-0.0008
1914.00,-0.0008
1913.00,-0.0008
1912.00,-0.0008
1911.00,-0.0008
1910.00,-0.0008
1909.00,-0.0008
1908.00,-0.0008
1907.00,-0.0008
1906.00,-0.0008
1905.00,-0.0008
1904.00,-0.0008
1903.00,-0.0008
1902.00,-0.0008
1901.00,-0.0008
1900.00,-0.0008
1899.00,-0.0008
1898.00,-0.0008
1897.00,-0.0008
1896.00,-0.0008
1895.00,-0.0008
1894.00,-0.0008
1893.00,-0.0008
1892.00,-0.0008
1891.00,-0.0008
1890.00,-0.0008
1889.00,-0.0008
1888.00,-0.0008
1887.00,-0.0008
1886.00,-0.0008
1885.00,-0.0008
1884.00,-0.0008
1883.00,-0.0008
1882.00,-0.0008
1881.00,-0.0008
1880.00,-0.0008
1879.00,-0.0008
1878.00,-0.0008
1877.00,-0.0008
1876.00,-0.0008
1875.00,-0.0008
1874.00,-0.0008
1873.00,-0.0008
1872.00,-0.0008
1871.00,-0.0008
1870.00,-0.0008
1869.00,-0.0008
1868.00,-0.0008
1867.00,-0.0008
1866.00,-0.0008
1865.00,-0.0008
1864.00,-0.0008
1863.00,-0.0008
1862.00,-0.0008
1861.00,-0.0008
1860.00,-0.0009
1859.00,-0.0008
1858.00,-0.0008
1857.00,-0.0008
1856.00,-0.0008
1855.00,-0.0008
1854.00,-0.0008
1853.00,-0.0008
1852.00,-0.0008
1851.00,-0.0008
1850.00,-0.0008
1849.00,-0.0008
1848.00,-0.0008
1847.00,-0.0008
1846.00,-0.0008
1845.00,-0.0008
1844.00,-0.0008
1843.00,-0.0008
1842.00,-0.0008
1841.00,-0.0008
1840.00,-0.0008
1839.00,-0.0008
1838.00,-0.0008
1837.00,-0.0008
1836.00,-0.0008
1835.00,-0.0008
1834.00,-0.0008
1833.00,-0.0008
1832.00,-0.0008
1831.00,-0.0008
1830.00,-0.0009
1829.00,-0.0009
1828.00,-0.0008
1827.00,-0.0008
1826.00,-0.0008
1825.00,-0.0008
1824.00,-0.0008
1823.00,-0.0008
1822.00,-0.0008
1821.00,-0.0008
1820.00,-0.0008
1819.00,-0.0008
1818.00,-0.0008
1817.00,-0.0008
1816.00,-0.0008
1815.00,-0.0008
1814.00,-0.0008
1813.00,-0.0008
1812.00,-0.0008
1811.00,-0.0008
1810.00,-0.0008
1809.00,-0.0008
1808.00,-0.0008
1807.00,-0.0008
1806.00,-0.0008
1805.00,-0.0008
1804.00,-0.0008
1803.00,-0.0008
1802.00,-0.0008
1801.00,-0.0008
1800.00,-0.0008
1799.00,-0.0008
1798.00,-0.0008
1797.00,-0.0008
1796.00,-0.0008
1795.00,-0.0008
1794.00,-0.0008
1793.00,-0.0008
1792.00,-0.0008
1791.00,-0.0008
1790.00,-0.0008
1789.00,-0.0008
1788.00,-0.0008
1787.00,-0.0008
1786.00,-0.0007
1785.00,-0.0007
1784.00,-0.0008
1783.00,-0.0008
1782.00,-0.0008
1781.00,-0.0008
1780.00,-0.0008
1779.00,-0.0008
1778.00,-0.0008
1777.00,-0.0008
1776.00,-0.0008
1775.00,-0.0008
1774.00,-0.0008
1773.00,-0.0008
1772.00,-0.0008
1771.00,-0.0008
1770.00,-0.0007
1769.00,-0.0007
1768.00,-0.0007
1767.00,-0.0007
1766.00,-0.0008
1765.00,-0.0008
1764.00,-0.0008
1763.00,-0.0008
1762.00,-0.0008
1761.00,-0.0008
1760.00,-0.0008
1759.00,-0.0008
1758.00,-0.0008
1757.00,-0.0007
1756.00,-0.0007
1755.00,-0.0007
1754.00,-0.0007
1753.00,-0.0006
1752.00,-0.0005
1751.00,-0.0005
1750.00,-0.0006
1749.00,-0.0007
1748.00,-0.0007
1747.00,-0.0007
1746.00,-0.0007
1745.00,-0.0007
1744.00,-0.0007
1743.00,-0.0008
1742.00,-0.0008
1741.00,-0.0008
1740.00,-0.0008
1739.00,-0.0008
1738.00,-0.0008
1737.00,-0.0008
1736.00,-0.0007
1735.00,-0.0006
1734.00,-0.0006
1733.00,-0.0006
1732.00,-0.0006
1731.00,-0.0007
1730.00,-0.0007
1729.00,-0.0007
1728.00,-0.0008
1727.00,-0.0008
1726.00,-0.0008
1725.00,-0.0008
1724.00,-0.0008
1723.00,-0.0008
1722.00,-0.0008
1721.00,-0.0008
1720.00,-0.0007
1719.00,-0.0007
1718.00,-0.0007
1717.00,-0.0007
1716.00,-0.0007
1715.00,-0.0007
1714.00,-0.0007
1713.00,-0.0007
1712.00,-0.0007
1711.00,-0.0007
1710.00,-0.0008
1709.00,-0.0008
1708.00,-0.0008
1707.00,-0.0008
1706.00,-0.0008
1705.00,-0.0008
1704.00,-0.0008
1703.00,-0.0008
1702.00,-0.0008
1701.00,-0.0007
1700.00,-0.0008
1699.00,-0.0007
1698.00,-0.0006
1697.00,-0.0006
1696.00,-0.0006
1695.00,-0.0007
1694.00,-0.0007
1693.00,-0.0007
1692.00,-0.0007
1691.00,-0.0007
1690.00,-0.0007
1689.00,-0.0007
1688.00,-0.0007
1687.00,-0.0007
1686.00,-0.0007
1685.00,-0.0007
1684.00,-0.0007
1683.00,-0.0007
1682.00,-0.0007
1681.00,-0.0007
1680.00,-0.0007
1679.00,-0.0007
1678.00,-0.0007
1677.00,-0.0007
1676.00,-0.0007
1675.00,-0.0007
1674.00,-0.0007
1673.00,-0.0007
1672.00,-0.0007
1671.00,-0.0007
1670.00,-0.0007
1669.00,-0.0008
1668.00,-0.0008
1667.00,-0.0008
1666.00,-0.0008
1665.00,-0.0008
1664.00,-0.0008
1663.00,-0.0008
1662.00,-0.0008
1661.00,-0.0007
1660.00,-0.0007
1659.00,-0.0007
1658.00,-0.0007
1657.00,-0.0008
1656.00,-0.0008
1655.00,-0.0008
1654.00,-0.0009
1653.00,-0.0009
1652.00,-0.0008
1651.00,-0.0008
1650.00,-0.0008
1649.00,-0.0007
1648.00,-0.0007
1647.00,-0.0007
1646.00,-0.0007
1645.00,-0.0007
1644.00,-0.0007
1643.00,-0.0007
1642.00,-0.0007
1641.00,-0.0007
1640.00,-0.0007
1639.00,-0.0007
1638.00,-0.0007
1637.00,-0.0007
1636.00,-0.0007
1635.00,-0.0007
1634.00,-0.0007
1633.00,-0.0007
1632.00,-0.0007
1631.00,-0.0007
1630.00,-0.0007
1629.00,-0.0007
1628.00,-0.0008
1627.00,-0.0008
1626.00,-0.0008
1625.00,-0.0008
1624.00,-0.0008
1623.00,-0.0008
1622.00,-0.0008
1621.00,-0.0008
1620.00,-0.0008
1619.00,-0.0008
1618.00,-0.0008
1617.00,-0.0008
1616.00,-0.0008
1615.00,-0.0008
1614.00,-0.0008
1613.00,-0.0008
1612.00,-0.0008
1611.00,-0.0008
1610.00,-0.0008
1609.00,-0.0008
1608.00,-0.0008
1607.00,-0.0008
1606.00,-0.0008
1605.00,-0.0008
1604.00,-0.0008
1603.00,-0.0008
1602.00,-0.0008
1601.00,-0.0008
1600.00,-0.0008
1599.00,-0.0008
1598.00,-0.0008
1597.00,-0.0008
1596.00,-0.0008
1595.00,-0.0008
1594.00,-0.0008
1593.00,-0.0008
1592.00,-0.0008
1591.00,-0.0008
1590.00,-0.0008
1589.00,-0.0008
1588.00,-0.0008
1587.00,-0.0008
1586.00,-0.0008
1585.00,-0.0008
1584.00,-0.0008
1583.00,-0.0008
1582.00,-0.0008
1581.00,-0.0008
1580.00,-0.0009
1579.00,-0.0009
1578.00,-0.0009
1577.00,-0.0009
1576.00,-0.0008
1575.00,-0.0008
1574.00,-0.0008
1573.00,-0.0008
1572.00,-0.0008
1571.00,-0.0008
1570.00,-0.0008
1569.00,-0.0008
1568.00,-0.0008
1567.00,-0.0007
1566.00,-0.0007
1565.00,-0.0007
1564.00,-0.0008
1563.00,-0.0008
1562.00,-0.0008
1561.00,-0.0008
1560.00,-0.0008
1559.00,-0.0007
1558.00,-0.0007
1557.00,-0.0007
1556.00,-0.0006
1555.00,-0.0006
1554.00,-0.0006
1553.00,-0.0006
1552.00,-0.0006
1551.00,-0.0007
1550.00,-0.0007
1549.00,-0.0007
1548.00,-0.0006
1547.00,-0.0006
1546.00,-0.0006
1545.00,-0.0007
1544.00,-0.0007
1543.00,-0.0007
1542.00,-0.0007
1541.00,-0.0007
1540.00,-0.0007
1539.00,-0.0007
1538.00,-0.0007
1537.00,-0.0007
1536.00,-0.0007
1535.00,-0.0007
1534.00,-0.0007
1533.00,-0.0007
1532.00,-0.0007
1531.00,-0.0007
1530.00,-0.0007
1529.00,-0.0007
1528.00,-0.0007
1527.00,-0.0007
1526.00,-0.0007
1525.00,-0.0007
1524.00,-0.0007
1523.00,-0.0007
1522.00,-0.0007
1521.00,-0.0007
1520.00,-0.0007
1519.00,-0.0007
1518.00,-0.0007
1517.00,-0.0007
1516.00,-0.0007
1515.00,-0.0006
1514.00,-0.0006
1513.00,-0.0006
1512.00,-0.0006
1511.00,-0.0007
1510.00,-0.0007
1509.00,-0.0007
1508.00,-0.0007
1507.00,-0.0007
1506.00,-0.0007
1505.00,-0.0007
1504.00,-0.0007
1503.00,-0.0007
1502.00,-0.0007
1501.00,-0.0007
1500.00,-0.0007
1499.00,-0.0008
1498.00,-0.0008
1497.00,-0.0007
1496.00,-0.0007
1495.00,-0.0008
1494.00,-0.0008
1493.00,-0.0008
1492.00,-0.0007
1491.00,-0.0007
1490.00,-0.0007
1489.00,-0.0007
1488.00,-0.0007
1487.00,-0.0007
1486.00,-0.0007
1485.00,-0.0008
1484.00,-0.0008
1483.00,-0.0008
1482.00,-0.0008
1481.00,-0.0008
1480.00,-0.0008
1479.00,-0.0008
1478.00,-0.0008
1477.00,-0.0008
1476.00,-0.0008
1475.00,-0.0007
1474.00,-0.0007
1473.00,-0.0006
1472.00,-0.0006
1471.00,-0.0007
1470.00,-0.0007
1469.00,-0.0007
1468.00,-0.0008
1467.00,-0.0008
1466.00,-0.0008
1465.00,-0.0008
1464.00,-0.0008
1463.00,-0.0008
1462.00,-0.0007
1461.00,-0.0007
1460.00,-0.0008
1459.00,-0.0008
1458.00,-0.0008
1457.00,-0.0007
1456.00,-0.0007
1455.00,-0.0007
1454.00,-0.0007
1453.00,-0.0007
1452.00,-0.0007
1451.00,-0.0008
1450.00,-0.0008
1449.00,-0.0008
1448.00,-0.0008
1447.00,-0.0008
1446.00,-0.0008
1445.00,-0.0008
1444.00,-0.0008
1443.00,-0.0008
1442.00,-0.0008
1441.00,-0.0008
1440.00,-0.0008
1439.00,-0.0008
1438.00,-0.0008
1437.00,-0.0008
1436.00,-0.0008
1435.00,-0.0008
1434.00,-0.0008
1433.00,-0.0008
1432.00,-0.0008
1431.00,-0.0008
1430.00,-0.0008
1429.00,-0.0008
1428.00,-0.0008
1427.00,-0.0008
1426.00,-0.0008
1425.00,-0.0008
1424.00,-0.0008
1423.00,-0.0008
1422.00,-0.0008
1421.00,-0.0008
1420.00,-0.0008
1419.00,-0.0008
1418.00,-0.0008
1417.00,-0.0007
1416.00,-0.0007
1415.00,-0.0008
1414.00,-0.0008
1413.00,-0.0008
1412.00,-0.0008
1411.00,-0.0008
1410.00,-0.0008
1409.00,-0.0008
1408.00,-0.0008
1407.00,-0.0008
1406.00,-0.0008
1405.00,-0.0008
1404.00,-0.0008
1403.00,-0.0008
1402.00,-0.0008
1401.00,-0.0008
1400.00,-0.0008
1399.00,-0.0008
1398.00,-0.0008
1397.00,-0.0008
1396.00,-0.0008
1395.00,-0.0008
1394.00,-0.0008
1393.00,-0.0008
1392.00,-0.0008
1391.00,-0.0008
1390.00,-0.0008
1389.00,-0.0008
1388.00,-0.0008
1387.00,-0.0008
1386.00,-0.0008
1385.00,-0.0008
1384.00,-0.0008
1383.00,-0.0008
1382.00,-0.0008
1381.00,-0.0008
1380.00,-0.0008
1379.00,-0.0008
1378.00,-0.0008
1377.00,-0.0008
1376.00,-0.0008
1375.00,-0.0008
1374.00,-0.0008
1373.00,-0.0008
1372.00,-0.0008
1371.00,-0.0008
1370.00,-0.0008
1369.00,-0.0008
1368.00,-0.0008
1367.00,-0.0008
1366.00,-0.0008
1365.00,-0.0008
1364.00,-0.0009
1363.00,-0.0009
1362.00,-0.0009
1361.00,-0.0008
1360.00,-0.0008
1359.00,-0.0008
1358.00,-0.0008
1357.00,-0.0008
1356.00,-0.0008
1355.00,-0.0008
1354.00,-0.0008
1353.00,-0.0009
1352.00,-0.0009
1351.00,-0.0009
1350.00,-0.0009
1349.00,-0.0009
1348.00,-0.0009
1347.00,-0.0009
1346.00,-0.0009
1345.00,-0.0009
1344.00,-0.0008
1343.00,-0.0008
1342.00,-0.0009
1341.00,-0.0009
1340.00,-0.0009
1339.00,-0.0009
1338.00,-0.0009
1337.00,-0.0009
1336.00,-0.0008
1335.00,-0.0008
1334.00,-0.0008
1333.00,-0.0009
1332.00,-0.0009
1331.00,-0.0009
1330.00,-0.0009
1329.00,-0.0009
1328.00,-0.0009
1327.00,-0.0009
1326.00,-0.0009
1325.00,-0.0008
1324.00,-0.0008
1323.00,-0.0008
1322.00,-0.0009
1321.00,-0.0008
1320.00,-0.0008
1319.00,-0.0008
1318.00,-0.0008
1317.00,-0.0008
1316.00,-0.0008
1315.00,-0.0008
1314.00,-0.0008
1313.00,-0.0009
1312.00,-0.0009
1311.00,-0.0009
1310.00,-0.0009
1309.00,-0.0009
1308.00,-0.0009
1307.00,-0.0009
1306.00,-0.0009
1305.00,-0.0009
1304.00,-0.0009
1303.00,-0.0009
1302.00,-0.0009
1301.00,-0.0009
1300.00,-0.0009
1299.00,-0.0009
1298.00,-0.0009
1297.00,-0.0009
1296.00,-0.0009
1295.00,-0.0009
1294.00,-0.0009
1293.00,-0.0009
1292.00,-0.0009
1291.00,-0.0009
1290.00,-0.0009
1289.00,-0.0009
1288.00,-0.0009
1287.00,-0.0009
1286.00,-0.0009
1285.00,-0.0009
1284.00,-0.0009
1283.00,-0.0009
1282.00,-0.0009
1281.00,-0.0009
1280.00,-0.0009
1279.00,-0.0009
1278.00,-0.0009
1277.00,-0.0009
1276.00,-0.0009
1275.00,-0.0009
1274.00,-0.0009
1273.00,-0.0009
1272.00,-0.0009
1271.00,-0.0009
1270.00,-0.0009
1269.00,-0.0009
1268.00,-0.0009
1267.00,-0.0009
1266.00,-0.0009
1265.00,-0.0009
1264.00,-0.0009
1263.00,-0.0009
1262.00,-0.0009
1261.00,-0.0009
1260.00,-0.0009
1259.00,-0.0009
1258.00,-0.0009
1257.00,-0.0009
1256.00,-0.0009
1255.00,-0.0009
1254.00,-0.0009
1253.00,-0.0009
1252.00,-0.0009
1251.00,-0.0009
1250.00,-0.0009
1249.00,-0.0010
1248.00,-0.0010
1247.00,-0.0010
1246.00,-0.0010
1245.00,-0.0009
1244.00,-0.0009
1243.00,-0.0009
1242.00,-0.0009
1241.00,-0.0009
1240.00,-0.0009
1239.00,-0.0009
1238.00,-0.0009
1237.00,-0.0009
1236.00,-0.0009
1235.00,-0.0009
1234.00,-0.0009
1233.00,-0.0009
1232.00,-0.0009
1231.00,-0.0009
1230.00,-0.0009
1229.00,-0.0009
1228.00,-0.0009
1227.00,-0.0009
1226.00,-0.0009
1225.00,-0.0009
1224.00,-0.0009
1223.00,-0.0009
1222.00,-0.0009
1221.00,-0.0009
1220.00,-0.0009
1219.00,-0.0009
1218.00,-0.0009
1217.00,-0.0009
1216.00,-0.0009
1215.00,-0.0009
1214.00,-0.0009
1213.00,-0.0009
1212.00,-0.0009
1211.00,-0.0009
1210.00,-0.0009
1209.00,-0.0009
1208.00,-0.0009
1207.00,-0.0009
1206.00,-0.0009
1205.00,-0.0009
1204.00,-0.0009
1203.00,-0.0009
1202.00,-0.0009
1201.00,-0.0009
1200.00,-0.0009
1199.00,-0.0009
1198.00,-0.0009
1197.00,-0.0009
1196.00,-0.0009
1195.00,-0.0009
1194.00,-0.0009
1193.00,-0.0009
1192.00,-0.0009
1191.00,-0.0009
1190.00,-0.0009
1189.00,-0.0009
1188.00,-0.0009
1187.00,-0.0009
1186.00,-0.0009
1185.00,-0.0009
1184.00,-0.0009
1183.00,-0.0009
1182.00,-0.0009
1181.00,-0.0009
1180.00,-0.0009
1179.00,-0.0009
1178.00,-0.0009
1177.00,-0.0009
1176.00,-0.0009
1175.00,-0.0009
1174.00,-0.0009
1173.00,-0.0009
1172.00,-0.0009
1171.00,-0.0009
1170.00,-0.0009
1169.00,-0.0009
1168.00,-0.0009
1167.00,-0.0009
1166.00,-0.0009
1165.00,-0.0009
1164.00,-0.0009
1163.00,-0.0009
1162.00,-0.0009
1161.00,-0.0009
1160.00,-0.0009
1159.00,-0.0009
1158.00,-0.0009
1157.00,-0.0009
1156.00,-0.0009
1155.00,-0.0009
1154.00,-0.0009
1153.00,-0.0010
1152.00,-0.0010
1151.00,-0.0010
1150.00,-0.0009
1149.00,-0.0009
1148.00,-0.0009
1147.00,-0.0009
1146.00,-0.0009
1145.00,-0.0009
1144.00,-0.0009
1143.00,-0.0009
1142.00,-0.0010
1141.00,-0.0010
1140.00,-0.0010
1139.00,-0.0010
1138.00,-0.0009
1137.00,-0.0009
1136.00,-0.0009
1135.00,-0.0009
1134.00,-0.0009
1133.00,-0.0009
1132.00,-0.0009
1131.00,-0.0010
1130.00,-0.0010
1129.00,-0.0010
1128.00,-0.0009
1127.00,-0.0009
1126.00,-0.0009
1125.00,-0.0009
1124.00,-0.0009
1123.00,-0.0009
1122.00,-0.0010
1121.00,-0.0010
1120.00,-0.0010
1119.00,-0.0010
1118.00,-0.0010
1117.00,-0.0010
1116.00,-0.0010
1115.00,-0.0010
1114.00,-0.0010
1113.00,-0.0010
1112.00,-0.0010
1111.00,-0.0010
1110.00,-0.0010
1109.00,-0.0010
1108.00,-0.0010
1107.00,-0.0010
1106.00,-0.0010
1105.00,-0.0010
1104.00,-0.0010
1103.00,-0.0010
1102.00,-0.0010
1101.00,-0.0010
1100.00,-0.0009
1099.00,-0.0009
1098.00,-0.0009
1097.00,-0.0009
1096.00,-0.0009
1095.00,-0.0009
1094.00,-0.0009
1093.00,-0.0009
1092.00,-0.0009
1091.00,-0.0009
1090.00,-0.0010
1089.00,-0.0010
1088.00,-0.0010
1087.00,-0.0010
1086.00,-0.0010
1085.00,-0.0010
1084.00,-0.0010
1083.00,-0.0010
1082.00,-0.0010
1081.00,-0.0010
1080.00,-0.0010
1079.00,-0.0010
1078.00,-0.0010
1077.00,-0.0010
1076.00,-0.0009
1075.00,-0.0009
1074.00,-0.0009
1073.00,-0.0009
1072.00,-0.0009
1071.00,-0.0009
1070.00,-0.0009
1069.00,-0.0009
1068.00,-0.0009
1067.00,-0.0009
1066.00,-0.0009
1065.00,-0.0009
1064.00,-0.0009
1063.00,-0.0009
1062.00,-0.0009
1061.00,-0.0009
1060.00,-0.0009
1059.00,-0.0009
1058.00,-0.0009
1057.00,-0.0009
1056.00,-0.0009
1055.00,-0.0009
1054.00,-0.0009
1053.00,-0.0009
1052.00,-0.0009
1051.00,-0.0009
1050.00,-0.0009
1049.00,-0.0009
1048.00,-0.0009
1047.00,-0.0009
1046.00,-0.0009
1045.00,-0.0009
1044.00,-0.0009
1043.00,-0.0009
1042.00,-0.0009
1041.00,-0.0009
1040.00,-0.0009
1039.00,-0.0009
1038.00,-0.0009
1037.00,-0.0009
1036.00,-0.0009
1035.00,-0.0009
1034.00,-0.0009
1033.00,-0.0009
1032.00,-0.0009
1031.00,-0.0009
1030.00,-0.0009
1029.00,-0.0009
1028.00,-0.0009
1027.00,-0.0009
1026.00,-0.0009
1025.00,-0.0009
1024.00,-0.0009
1023.00,-0.0009
1022.00,-0.0009
1021.00,-0.0009
1020.00,-0.0009
1019.00,-0.0009
1018.00,-0.0009
1017.00,-0.0009
1016.00,-0.0008
1015.00,-0.0008
1014.00,-0.0008
1013.00,-0.0008
1012.00,-0.0008
1011.00,-0.0008
1010.00,-0.0008
1009.00,-0.0008
1008.00,-0.0008
1007.00,-0.0008
1006.00,-0.0008
1005.00,-0.0008
1004.00,-0.0008
1003.00,-0.0008
1002.00,-0.0008
1001.00,-0.0008
1000.00,-0.0008
999.00,-0.0008
998.00,-0.0008
997.00,-0.0008
996.00,-0.0008
995.00,-0.0008
994.00,-0.0008
993.00,-0.0008
992.00,-0.0008
991.00,-0.0009
990.00,-0.0009
989.00,-0.0009
988.00,-0.0008
987.00,-0.0008
986.00,-0.0009
985.00,-0.0009
984.00,-0.0009
983.00,-0.0008
982.00,-0.0008
981.00,-0.0008
980.00,-0.0008
979.00,-0.0008
978.00,-0.0009
977.00,-0.0009
976.00,-0.0009
975.00,-0.0009
974.00,-0.0009
973.00,-0.0009
972.00,-0.0009
971.00,-0.0009
970.00,-0.0009
969.00,-0.0009
968.00,-0.0008
967.00,-0.0008
966.00,-0.0008
965.00,-0.0008
964.00,-0.0008
963.00,-0.0009
962.00,-0.0009
961.00,-0.0009
960.00,-0.0009
959.00,-0.0009
958.00,-0.0009
957.00,-0.0009
956.00,-0.0009
955.00,-0.0009
954.00,-0.0009
953.00,-0.0009
952.00,-0.0009
951.00,-0.0009
950.00,-0.0009
949.00,-0.0009
948.00,-0.0009
947.00,-0.0009
946.00,-0.0009
945.00,-0.0009
944.00,-0.0009
943.00,-0.0009
942.00,-0.0009
941.00,-0.0009
940.00,-0.0009
939.00,-0.0009
938.00,-0.0009
937.00,-0.0009
936.00,-0.0009
935.00,-0.0009
934.00,-0.0009
933.00,-0.0009
932.00,-0.0009
931.00,-0.0009
930.00,-0.0009
929.00,-0.0009
928.00,-0.0009
927.00,-0.0009
926.00,-0.0009
925.00,-0.0009
924.00,-0.0009
923.00,-0.0009
922.00,-0.0009
921.00,-0.0009
920.00,-0.0009
919.00,-0.0009
918.00,-0.0009
917.00,-0.0009
916.00,-0.0009
915.00,-0.0010
914.00,-0.0010
913.00,-0.0010
912.00,-0.0010
911.00,-0.0010
910.00,-0.0010
909.00,-0.0010
908.00,-0.0009
907.00,-0.0009
906.00,-0.0009
905.00,-0.0009
904.00,-0.0009
903.00,-0.0009
902.00,-0.0009
901.00,-0.0009
900.00,-0.0009
899.00,-0.0009
898.00,-0.0009
897.00,-0.0009
896.00,-0.0009
895.00,-0.0009
894.00,-0.0009
893.00,-0.0009
892.00,-0.0009
891.00,-0.0009
890.00,-0.0009
889.00,-0.0009
888.00,-0.0009
887.00,-0.0009
886.00,-0.0009
885.00,-0.0009
884.00,-0.0009
883.00,-0.0009
882.00,-0.0009
881.00,-0.0009
880.00,-0.0009
879.00,-0.0009
878.00,-0.0009
877.00,-0.0009
876.00,-0.0009
875.00,-0.0009
874.00,-0.0009
873.00,-0.0009
872.00,-0.0009
871.00,-0.0009
870.00,-0.0009
869.00,-0.0009
868.00,-0.0009
867.00,-0.0009
866.00,-0.0009
865.00,-0.0009
864.00,-0.0009
863.00,-0.0009
862.00,-0.0009
861.00,-0.0009
860.00,-0.0009
859.00,-0.0009
858.00,-0.0009
857.00,-0.0009
856.00,-0.0008
855.00,-0.0009
854.00,-0.0009
853.00,-0.0009
852.00,-0.0009
851.00,-0.0009
850.00,-0.0009
849.00,-0.0009
848.00,-0.0009
847.00,-0.0009
846.00,-0.0008
845.00,-0.0009
844.00,-0.0009
843.00,-0.0009
842.00,-0.0009
841.00,-0.0009
840.00,-0.0009
839.00,-0.0009
838.00,-0.0009
837.00,-0.0009
836.00,-0.0009
835.00,-0.0009
834.00,-0.0009
833.00,-0.0009
832.00,-0.0009
831.00,-0.0009
830.00,-0.0009
829.00,-0.0009
828.00,-0.0009
827.00,-0.0009
826.00,-0.0009
825.00,-0.0009
824.00,-0.0009
823.00,-0.0009
822.00,-0.0009
821.00,-0.0009
820.00,-0.0009
819.00,-0.0009
818.00,-0.0008
817.00,-0.0008
816.00,-0.0009
815.00,-0.0009
814.00,-0.0009
813.00,-0.0009
812.00,-0.0009
811.00,-0.0009
810.00,-0.0009
809.00,-0.0009
808.00,-0.0009
807.00,-0.0009
806.00,-0.0009
805.00,-0.0009
804.00,-0.0009
803.00,-0.0009
802.00,-0.0009
801.00,-0.0009
800.00,-0.0009
799.00,-0.0009
798.00,-0.0009
797.00,-0.0009
796.00,-0.0009
795.00,-0.0009
794.00,-0.0009
793.00,-0.0009
792.00,-0.0009
791.00,-0.0009
790.00,-0.0009
789.00,-0.0009
788.00,-0.0009
787.00,-0.0008
786.00,-0.0008
785.00,-0.0009
784.00,-0.0009
783.00,-0.0008
782.00,-0.0008
781.00,-0.0008
780.00,-0.0008
779.00,-0.0008
778.00,-0.0008
777.00,-0.0008
776.00,-0.0008
775.00,-0.0008
774.00,-0.0009
773.00,-0.0009
772.00,-0.0008
771.00,-0.0008
770.00,-0.0008
769.00,-0.0009
768.00,-0.0009
767.00,-0.0009
766.00,-0.0009
765.00,-0.0009
764.00,-0.0009
763.00,-0.0009
762.00,-0.0009
761.00,-0.0009
760.00,-0.0009
759.00,-0.0009
758.00,-0.0009
757.00,-0.0009
756.00,-0.0009
755.00,-0.0008
754.00,-0.0008
753.00,-0.0008
752.00,-0.0008
751.00,-0.0009
750.00,-0.0008
749.00,-0.0008
748.00,-0.0009
747.00,-0.0009
746.00,-0.0009
745.00,-0.0009
744.00,-0.0009
743.00,-0.0009
742.00,-0.0008
741.00,-0.0008
740.00,-0.0008
739.00,-0.0008
738.00,-0.0008
737.00,-0.0008
736.00,-0.0008
735.00,-0.0008
734.00,-0.0008
733.00,-0.0008
732.00,-0.0008
731.00,-0.0008
730.00,-0.0008
729.00,-0.0008
728.00,-0.0008
727.00,-0.0008
726.00,-0.0008
725.00,-0.0008
724.00,-0.0008
723.00,-0.0008
722.00,-0.0008
721.00,-0.0008
720.00,-0.0008
719.00,-0.0008
718.00,-0.0008
717.00,-0.0008
716.00,-0.0008
715.00,-0.0008
714.00,-0.0008
713.00,-0.0008
712.00,-0.0009
711.00,-0.0009
710.00,-0.0009
709.00,-0.0009
708.00,-0.0009
707.00,-0.0009
706.00,-0.0009
705.00,-0.0009
704.00,-0.0009
703.00,-0.0009
702.00,-0.0009
701.00,-0.0009
700.00,-0.0009
699.00,-0.0009
698.00,-0.0009
697.00,-0.0009
696.00,-0.0009
695.00,-0.0009
694.00,-0.0009
693.00,-0.0009
692.00,-0.0009
691.00,-0.0009
690.00,-0.0009
689.00,-0.0009
688.00,-0.0009
687.00,-0.0009
686.00,-0.0009
685.00,-0.0010
684.00,-0.0010
683.00,-0.0010
682.00,-0.0010
681.00,-0.0010
680.00,-0.0010
679.00,-0.0010
678.00,-0.0010
677.00,-0.0010
676.00,-0.0010
675.00,-0.0010
674.00,-0.0010
673.00,-0.0010
672.00,-0.0010
671.00,-0.0011
670.00,-0.0013
669.00,-0.0015
668.00,-0.0016
667.00,-0.0016
666.00,-0.0014
665.00,-0.0012
664.00,-0.0011
663.00,-0.0010
662.00,-0.0010
661.00,-0.0010
660.00,-0.0009
659.00,-0.0009
658.00,-0.0010
657.00,-0.0010
656.00,-0.0010
655.00,-0.0010
654.00,-0.0011
653.00,-0.0010
652.00,-0.0010
651.00,-0.0010
650.00,-0.0010
649.00,-0.0010
648.00,-0.0009
647.00,-0.0009
646.00,-0.0010
645.00,-0.0010
644.00,-0.0010
643.00,-0.0010
642.00,-0.0009
641.00,-0.0009
640.00,-0.0009
639.00,-0.0010
638.00,-0.0010
637.00,-0.0010
636.00,-0.0010
635.00,-0.0010
634.00,-0.0010
633.00,-0.0010
632.00,-0.0010
631.00,-0.0010
630.00,-0.0010
629.00,-0.0010
628.00,-0.0010
627.00,-0.0009
626.00,-0.0009
625.00,-0.0009
624.00,-0.0009
623.00,-0.0009
622.00,-0.0010
621.00,-0.0010
620.00,-0.0010
619.00,-0.0009
618.00,-0.0009
617.00,-0.0009
616.00,-0.0009
615.00,-0.0010
614.00,-0.0010
613.00,-0.0010
612.00,-0.0010
611.00,-0.0009
610.00,-0.0009
609.00,-0.0010
608.00,-0.0010
607.00,-0.0011
606.00,-0.0011
605.00,-0.0011
604.00,-0.0011
603.00,-0.0011
602.00,-0.0010
601.00,-0.0010
600.00,-0.0009
599.00,-0.0009
598.00,-0.0010
597.00,-0.0011
596.00,-0.0011
595.00,-0.0012
594.00,-0.0012
593.00,-0.0012
592.00,-0.0011
591.00,-0.0011
590.00,-0.0011
589.00,-0.0010
588.00,-0.0010
587.00,-0.0010
586.00,-0.0010
585.00,-0.0009
584.00,-0.0009
583.00,-0.0010
582.00,-0.0011
581.00,-0.0011
580.00,-0.0011
579.00,-0.0010
578.00,-0.0010
577.00,-0.0010
576.00,-0.0009
575.00,-0.0009
574.00,-0.0010
573.00,-0.0010
572.00,-0.0011
571.00,-0.0010
570.00,-0.0010
569.00,-0.0010
568.00,-0.0010
567.00,-0.0009
566.00,-0.0010
565.00,-0.0010
564.00,-0.0010
563.00,-0.0010
562.00,-0.0010
561.00,-0.0010
560.00,-0.0010
559.00,-0.0010
558.00,-0.0010
557.00,-0.0010
556.00,-0.0010
555.00,-0.0010
554.00,-0.0010
553.00,-0.0010
552.00,-0.0009
551.00,-0.0009
550.00,-0.0008
549.00,-0.0008
548.00,-0.0009
547.00,-0.0009
546.00,-0.0010
545.00,-0.0010
544.00,-0.0010
543.00,-0.0010
542.00,-0.0010
541.00,-0.0010
540.00,-0.0010
539.00,-0.0011
538.00,-0.0011
537.00,-0.0011
536.00,-0.0010
535.00,-0.0010
534.00,-0.0010
533.00,-0.0011
532.00,-0.0011
531.00,-0.0011
530.00,-0.0010
529.00,-0.0010
528.00,-0.0009
527.00,-0.0009
526.00,-0.0009
525.00,-0.0010
524.00,-0.0010
523.00,-0.0011
522.00,-0.0011
521.00,-0.0011
520.00,-0.0010
519.00,-0.0010
518.00,-0.0010
517.00,-0.0011
516.00,-0.0010
515.00,-0.0010
514.00,-0.0010
513.00,-0.0010
512.00,-0.0010
511.00,-0.0010
510.00,-0.0011
509.00,-0.0011
508.00,-0.0011
507.00,-0.0011
506.00,-0.0010
505.00,-0.0010
504.00,-0.0010
503.00,-0.0010
502.00,-0.0010
501.00,-0.0010
500.00,-0.0011
